accX,accY,accZ,gyroX,gyroY,gyroZ,Activity
-0.463137,4.214187,9.245224,-0.249643,0.326487,0.008197,1
0.055085,2.380949,6.888076,-0.140381,0.503539,-0.476535,1
-0.464933,1.73594,8.889863,0.196215,0.31439,-0.293695,1
0.126637,1.435964,8.243508,-0.257561,0.245502,-0.462814,1
0.180824,0.228575,8.425379,0.208136,-0.26827,-0.004389,1
0.001198,2.546355,6.426286,-0.201559,0.227155,0.453643,1
-0.165406,2.228117,8.946895,0.051956,-0.142948,-0.079216,1
-0.292043,4.076174,8.541687,-0.106418,0.024192,-0.097639,1
0.260758,4.336482,10.124945,-0.067502,0.290363,0.202094,1
-0.825533,1.617087,7.666757,0.185367,-0.224925,0.033528,1
-0.137265,1.989962,8.735684,0.299768,-0.244922,-0.060556,1
-0.587079,2.450554,6.733747,-0.064226,-0.004029,0.212625,1
0.376916,1.479374,7.764055,0.26004,-0.174103,-0.09086,1
-0.218845,1.583707,12.843592,0.218844,-0.068687,0.119908,1
0.609383,1.732048,7.810458,-0.129342,0.171347,-0.525608,1
0.849633,2.099833,12.271032,0.054314,0.076198,0.228716,1
1.984124,1.742826,8.465197,-0.0355,0.1675,-0.240309,1
1.410367,1.977987,9.768536,0.345234,0.024778,-0.159919,1
0.026196,2.920427,7.237001,-0.292122,0.103462,0.125151,1
-0.829874,1.547332,9.249416,0.195853,-0.106077,0.105918,1
-0.031884,2.501299,9.172476,0.199007,0.004584,0.127657,1
-0.217198,3.031646,9.461076,-0.049141,-0.038717,0.176589,1
1.913471,2.15926,10.1227,-1.144609,0.094722,-0.812992,1
-0.563129,2.557881,12.002042,0.160729,0.775218,0.160592,1
0.476908,1.008752,14.751524,0.061942,0.325897,0.179696,1
0.230072,4.993017,10.469379,0.236236,-0.25847,0.128825,1
-0.281714,3.099455,11.840677,0.039567,-0.228574,-0.061534,1
0.171244,2.930905,6.958729,-0.370107,-0.263907,-0.310842,1
0.006287,3.221301,11.419004,-0.053315,0.117318,0.275838,1
-0.763862,2.159559,7.924072,-0.230337,0.188527,-0.141744,1
-0.29803,3.278183,9.459579,0.122267,0.050317,-0.179351,1
0.255219,2.446812,9.27127,0.0181,-0.03285,-0.006119,1
-1.296604,1.225951,11.331286,0.090916,0.055662,0.122698,1
-1.003064,1.426683,11.584859,0.011559,0.063304,-0.289919,1
1.666035,0.191152,8.465197,0.194168,-0.008459,-0.062438,1
0.659828,0.712069,10.669513,0.539475,-0.019097,-0.352645,1
0.607886,2.30341,11.98842,0.21753,-0.221904,0.043441,1
-0.75997,1.15904,9.871223,-0.099411,-0.31378,-0.096697,1
-0.865201,2.049987,12.176429,-0.317709,-0.012231,0.023882,1
-0.126936,3.458259,7.877668,0.203969,-0.146212,-0.042269,1
0.196392,2.357597,6.426286,0.584888,-0.118629,0.401078,1
0.551603,0.248034,8.974288,-0.029043,-0.350659,-0.318267,1
0.292342,1.561852,8.315807,-0.267617,-0.150521,0.295852,1
0.78856,1.55302,7.023395,-0.031905,0.04678,-0.270376,1
0.48589,1.765129,6.762038,0.043344,0.268127,-0.045119,1
-0.512834,1.583707,10.150242,0.014228,0.174308,0.058187,1
0.282612,1.540447,11.177556,0.303544,0.095165,0.050343,1
-0.536933,2.886298,8.196805,-0.149616,0.321803,-0.055583,1
-0.355511,2.184857,6.916966,-0.014976,-0.087794,-0.248379,1
0.4811,3.344794,10.651101,-0.158594,0.220524,-0.474738,1
-0.096849,4.849615,7.61257,0.193361,0.039464,-0.326592,1
-0.233514,2.850373,9.075477,-0.086388,-0.056769,-0.059533,1
-0.446671,2.159859,7.226373,-0.214639,-0.017358,-0.33747,1
0.32677,3.873645,6.48212,-0.074028,-0.134665,-0.11948,1
-0.779878,0.92822,10.656789,-0.107826,0.238819,-0.013277,1
-0.359403,3.18358,10.385853,-0.071391,-0.605889,0.249789,1
1.329835,1.288521,8.199499,0.150003,0.0287,-0.187711,1
1.317859,1.531914,9.70896,-0.30238,-0.072137,0.350193,1
-0.617915,4.022735,11.620335,0.091597,-0.093827,-0.149178,1
0.891546,1.684597,6.66489,0.125586,0.125889,-0.160914,1
0.609532,0.943039,11.966565,0.114564,-0.253857,-0.007288,1
-0.021705,2.020349,7.158115,0.536017,-0.211066,-0.588864,1
1.001418,1.518891,8.691077,-0.056117,0.49952,0.436179,1
-0.281115,2.089355,7.564969,0.565471,-0.150254,0.38775,1
-0.853525,3.946842,10.566078,-0.213005,-0.002744,-0.020008,1
-0.351319,1.712439,8.04023,-0.085762,0.095524,-0.020854,1
0.556692,2.358645,8.131989,-0.483786,-0.311901,-0.500667,1
-0.079185,0.729283,11.335927,0.116105,0.108737,-0.087482,1
-0.520168,2.212549,6.772217,0.129667,-0.470289,-0.054929,1
0.178728,0.132624,11.185789,0.037178,-0.070153,0.362793,1
-0.212408,2.588118,10.207274,0.202679,-0.017834,0.505965,1
0.421973,1.848955,8.296946,0.038266,0.094648,0.326101,1
-0.388592,2.990481,11.803854,0.037662,-0.143361,0.162488,1
0.578098,0.220042,8.418194,-0.471644,0.373182,-0.061646,1
-0.834515,1.480721,11.371702,0.117336,-0.611435,-0.217773,1
1.138832,0.318538,7.267986,-0.047713,-0.279703,0.133807,1
0.477357,0.5769,8.811876,0.116825,-0.32005,0.092079,1
0.430355,1.51485,7.75687,-0.159346,-0.173157,0.036081,1
-0.159868,2.5968,6.575826,0.134788,-0.257097,0.026362,1
0.266296,1.277593,6.415359,-0.35003,0.135837,-0.174421,1
0.03368,3.324137,7.739506,0.253442,0.524949,-0.22121,1
0.440983,0.978964,11.010653,0.282347,0.010859,-0.202509,1
1.228196,2.280957,8.34829,0.385333,0.10346,-0.325922,1
-0.088017,3.218457,8.443342,-0.041557,0.02799,-0.166318,1
1.498085,2.286346,8.271649,-0.168963,0.216877,-0.416048,1
1.193618,0.908161,7.695497,-0.121965,0.151744,0.244524,1
0.171843,1.667981,7.622898,-0.119387,0.157764,-0.502022,1
-0.877176,2.336192,9.629475,0.21861,0.021251,-0.026957,1
-1.159339,3.428021,9.308842,0.065471,0.221068,-0.343199,1
-0.667013,3.175197,10.815759,0.169033,0.323468,0.0752,1
-0.753234,-0.069007,13.044773,0.100559,0.030501,-0.050308,1
-0.606389,1.053659,7.789651,0.118072,-0.479389,0.106112,1
0.712069,2.102977,7.687414,0.313838,0.200534,-0.111017,1
-0.387394,2.711012,8.991951,-0.162518,0.009599,0.408343,1
0.609532,1.465752,6.747518,-0.175163,0.153567,-0.238755,1
0.950673,1.40423,10.116113,-0.546343,0.047393,-0.06784,1
-0.007634,2.656825,6.327043,-0.244425,0.227606,0.200631,1
0.864752,1.647025,9.852212,-0.414562,-0.375944,0.348894,1
0.273481,2.367776,13.783188,0.107124,-0.011597,-0.205034,1
-1.537153,1.201252,11.229199,-0.08142,-0.050816,0.441465,1
-0.902024,0.213755,12.930411,0.002863,-0.01252,0.022914,1
-1.54359,2.660717,11.644435,-0.210649,0.298693,0.413042,1
-1.041534,3.367996,10.961855,0.238094,0.710924,0.249553,1
-0.896037,0.912802,13.388758,0.078887,-0.038022,0.213742,1
-0.717608,4.184249,11.782598,-0.106095,0.233872,-0.219826,1
-0.166903,-0.662672,13.278288,0.013632,-0.137282,0.155236,1
1.118324,1.836681,8.188721,0.077397,-0.161607,0.326443,1
-0.941542,2.373614,8.661438,0.378636,-0.249566,-0.126083,1
-0.214504,1.571582,9.582024,0.020598,-0.013502,0.034836,1
0.015268,2.013613,11.547886,0.495793,-0.206812,0.202691,1
0.251327,1.878743,6.578221,0.002795,-0.012591,0.026923,1
0.775837,3.743565,13.147909,-0.700385,-0.466525,0.078239,1
0.314496,2.232009,8.736732,-0.371967,-0.029569,0.106073,1
0.378862,2.259551,6.166876,0.259992,0.248657,0.05696,1
-0.712069,2.22168,8.773555,-0.034289,-0.000586,-0.277561,1
0.38485,3.086132,7.757917,0.126536,0.189757,-0.213408,1
0.85128,3.277435,10.196496,0.035428,0.563602,0.131187,1
-0.82688,2.547702,10.119257,0.520255,0.039548,-0.083934,1
-0.530497,1.879941,11.99336,-0.004809,-0.128772,0.036617,1
-0.116757,3.430716,7.173832,-0.217655,0.237333,0.064924,1
0.247435,1.315764,6.950646,0.236172,-0.177483,0.073044,1
-0.038919,3.101401,8.008646,-0.021753,0.138176,-0.431437,1
-0.279768,3.204536,8.085137,-0.117728,-0.37086,-0.122852,1
-0.806074,3.485502,9.484128,-0.264193,-0.136603,0.036854,1
1.496738,1.418899,9.061107,0.123067,0.361344,-0.086533,1
0.063767,2.657723,7.514374,0.206213,0.066851,0.231089,1
-1.097518,1.42354,9.060209,0.243078,-0.28045,-0.057811,1
0.342637,1.281635,7.31439,-0.855347,-0.461555,-0.666936,1
0.371976,0.565374,7.680828,0.070135,0.061967,-0.039987,1
-1.996099,2.761008,12.887001,-0.225045,-0.452959,-0.014789,1
-1.043031,3.293601,11.398197,-0.032547,-0.184955,-0.038355,1
0.671204,3.599116,10.544972,-0.08383,0.75018,-0.028918,1
-0.629291,1.211581,9.591904,0.005263,-0.03225,-0.589743,1
0.33201,3.978277,13.874198,-0.077512,-0.443163,-0.16269,1
-1.469344,2.814597,10.657088,-0.12396,0.108895,0.298877,1
-0.23082,2.790497,12.792398,0.178527,0.089118,0.011705,1
1.179248,1.227897,6.980135,-0.092299,-0.033369,0.234563,1
-0.299078,2.025737,7.351213,0.00221,-0.081639,0.092089,1
1.35588,2.037563,11.256442,-0.075477,-0.034278,-0.220757,1
-0.659529,1.137634,11.508069,0.3559,-0.011287,-0.14681,1
0.582439,0.789009,10.190359,-0.122398,-0.019237,0.069859,1
-0.203277,3.381319,6.716234,-0.099596,-0.012964,-0.328836,1
-0.343685,1.189726,9.548643,0.448825,0.520556,0.248326,1
-0.649948,2.306703,10.518626,0.072805,0.298576,-0.062313,1
0.125589,3.449277,10.719509,0.110732,0.116392,-0.304625,1
-0.106129,3.669469,8.02571,0.236037,0.027222,-0.049912,1
-0.499811,3.090623,8.440797,0.024136,0.233476,0.453398,1
-0.155527,2.296375,9.455088,0.133111,0.205336,0.114041,1
0.974923,1.137934,7.367379,-0.282569,0.198315,-0.272603,1
0.372575,2.419568,6.753356,0.063235,-0.032077,-0.252205,1
0.754581,1.56275,9.346863,0.391609,0.043494,0.159291,1
-0.985251,2.102528,9.296717,-0.100043,0.111255,0.483202,1
-0.440983,3.179089,6.86233,0.104833,-0.040143,0.088995,1
0.482447,0.146545,13.13279,-0.160443,0.016465,-0.02272,1
1.559457,0.148791,9.617949,0.11174,-0.143699,-0.134495,1
0.576601,2.627935,9.114696,-0.099727,-0.116942,0.003915,1
-0.079784,1.518742,11.556418,0.085126,0.08448,0.199154,1
-0.255668,3.132386,11.548934,-0.4681,-0.147856,0.227543,1
0.417182,2.559527,8.769963,-0.041191,-0.043661,-0.078069,1
-0.644859,1.627715,9.134904,-0.008727,0.173277,0.163258,1
0.219294,3.051105,8.950487,0.259592,-0.154137,0.074727,1
-0.311353,2.357448,6.413862,-0.131825,-0.32224,-0.295124,1
0.188608,3.392395,7.729027,-0.267911,-0.372822,-0.117419,1
1.10126,1.207988,11.379037,0.029405,-0.398413,0.392527,1
-0.095501,3.802543,9.028326,0.048525,0.040507,-0.184991,1
1.738335,2.158661,9.273815,0.025623,0.113864,-0.329312,1
-0.082778,3.683989,8.081844,0.084761,-0.088945,-0.097908,1
2.536026,2.003883,11.119028,0.002581,-0.434632,-0.002405,1
-0.635279,2.276616,6.907236,-0.040666,0.053147,0.067477,1
1.588048,1.474584,11.708203,-0.08012,0.167021,-0.159572,1
0.196392,2.085014,7.64101,0.431614,0.004351,-0.245111,1
-0.761916,3.050207,11.797866,0.092831,-0.480635,-0.091991,1
0.963397,2.365381,12.421619,0.197862,0.069031,0.022872,1
-0.116308,3.199896,11.182945,0.178563,-0.219262,0.090073,1
-0.122894,3.115322,9.707613,-0.042491,0.407472,0.562776,1
-1.159639,2.16869,9.078771,-0.253627,0.092682,0.222805,1
-0.14894,2.765948,6.861282,0.481083,0.628631,0.385314,1
-0.516576,4.312083,9.549392,0.049788,-0.308856,-0.048415,1
1.174009,1.489403,10.546319,0.099764,-0.029264,-0.038948,1
0.017514,3.091821,7.741751,0.22383,0.699475,0.145357,1
0.200433,1.967509,6.649622,-0.810376,0.112174,-0.735542,1
-0.114063,2.856061,6.509962,0.061341,-0.148192,-0.050481,1
0.73093,0.569566,11.216625,-0.250273,0.122473,0.179279,1
-0.465382,4.195625,7.965985,0.089749,0.309353,-0.069344,1
-0.51927,3.589086,8.70395,0.079928,0.046705,-0.024783,1
-1.347947,3.291954,11.064242,-0.094662,-0.150352,0.140574,1
-0.129032,1.54374,12.263248,-0.009822,0.019941,0.158387,1
0.659828,-0.434097,10.7237,0.086922,0.13285,-0.221373,1
0.551304,2.005979,12.536879,0.008531,0.071169,-0.187266,1
-0.534538,0.840053,13.045971,0.073317,0.153725,0.226917,1
-0.610431,1.382675,9.604477,0.01574,-0.009685,0.001113,1
-0.10598,2.111509,8.530311,0.048018,0.053385,0.024829,1
0.261806,3.424429,8.906928,0.124089,-0.096898,0.047738,1
0.498613,2.153422,7.420519,0.134121,0.123147,-0.167395,1
-0.882864,4.047733,11.686498,0.193891,0.15936,-0.37391,1
0.860411,2.116299,7.686216,-0.014521,-0.007829,-0.073717,1
0.751737,2.772984,11.364667,-0.856784,0.300694,0.128209,1
1.223705,0.718955,14.594351,0.063997,0.013042,-0.192898,1
-0.724344,2.895429,12.133768,-0.53966,0.007982,-0.027056,1
-0.576601,1.878593,11.943663,0.335957,-0.616062,-0.039916,1
0.008682,0.676593,8.329429,0.346767,0.004055,0.086266,1
-0.261955,3.911516,8.647517,0.026296,-0.039249,-0.091335,1
-0.306712,2.901267,9.919572,0.122371,-0.001283,-0.023642,1
-0.37497,1.311722,9.692345,-0.012423,-0.016933,-0.020634,1
-0.865949,1.23598,12.521461,0.452438,0.355993,-0.140233,1
0.121697,1.156794,6.611302,-0.349545,-0.39469,-0.26096,1
-0.490979,0.582139,8.772807,0.017492,0.015568,0.019867,1
-1.235082,2.354454,8.914263,-0.002222,0.045903,0.11516,1
1.192869,0.352966,13.796959,0.25024,0.372929,0.164202,1
1.11578,2.310894,7.287146,0.414372,-0.488662,-0.058084,1
-0.452509,3.234324,12.136312,0.177924,-0.100576,-0.525869,1
-0.363295,2.809208,7.11201,0.034125,0.050553,-0.200945,1
-0.964744,0.958307,9.928853,-0.355603,-0.130857,0.386317,1
0.005838,3.691474,12.077335,-1.155574,-0.40942,-0.476166,1
0.690963,2.19758,11.971505,0.007497,-0.201489,-0.100934,1
0.787363,3.654949,10.486294,0.137366,-0.452506,-0.086595,1
0.267494,4.826713,11.32006,-0.179492,-0.091432,-0.062771,1
1.384621,1.730402,11.667338,-0.384356,-0.087394,0.256546,1
0.028291,1.108146,7.058572,0.189503,-0.124389,-0.325188,1
0.00464,0.090711,11.661949,0.234905,-0.32262,-0.309367,1
-0.242196,1.716481,7.845934,0.197431,-0.187498,0.286752,1
-0.217049,2.338886,10.083631,0.013467,-0.001319,-0.057274,1
-0.026046,2.694098,6.752309,-0.413185,-0.032765,0.125276,1
-0.367186,3.642226,8.693622,0.237341,0.126498,0.03215,1
0.435744,3.255281,9.174871,0.136693,0.032607,-0.036843,1
-0.248184,3.031945,11.427985,-0.396342,0.064393,-0.215338,1
0.475112,3.337909,12.651391,0.102767,-0.009576,0.016429,1
0.603395,2.366579,9.259146,-0.365043,-0.209504,0.146791,1
-0.325723,1.485661,8.259824,0.590584,0.715308,0.588312,1
0.15373,2.315834,10.74765,0.164514,-0.236106,-0.137684,1
0.860261,1.343606,8.291258,0.079949,0.129536,0.075206,1
-1.036594,1.24556,10.705288,-0.719779,-0.383578,-0.137561,1
-0.845442,0.420775,10.967693,0.063721,0.146925,-0.431138,1
0.124541,3.215763,8.714129,-0.007573,-0.167793,-0.021609,1
0.212259,2.848277,8.53555,0.091078,0.184771,0.434924,1
0.712967,0.77404,13.635744,0.288962,-0.521261,-0.181827,1
1.650019,0.434097,13.802048,-0.055114,-0.248125,0.209765,1
0.285606,3.179987,9.017847,-0.092815,0.106335,-0.051937,1
-0.635279,2.402654,13.145065,-0.325594,0.320669,-0.410003,1
-0.592318,2.643652,9.19942,0.310963,0.101029,0.467904,1
1.459615,1.834136,9.384435,-0.038202,0.05727,0.230353,1
0.649499,3.927233,9.957144,-0.1577,-0.153084,-0.186711,1
-0.411943,2.73137,11.709101,-0.159682,-0.193947,-0.131373,1
-0.527503,3.546425,11.404484,-0.827428,-0.404778,-0.132658,1
-0.870739,1.737437,12.038566,-0.060864,-0.142334,-0.079892,1
-2.155069,-0.330064,13.187726,-0.001363,-0.004556,0.033804,1
0.465233,3.614534,12.521012,-0.860973,-0.609108,-0.305486,1
-1.383723,3.502267,10.641371,0.33622,0.076807,0.264556,1
0.056582,2.332899,6.47763,0.425919,0.03199,-0.234226,1
0.883463,0.680036,8.83388,0.111488,-0.169071,0.117068,1
0.266147,2.209555,7.394024,0.884478,-0.414999,0.341159,1
-0.274529,1.98607,7.465725,-0.721245,0.066985,0.216579,1
0.264949,-0.029638,9.075777,0.027596,-0.022978,0.003187,1
-0.948577,3.061883,9.299711,0.035435,0.143659,0.281636,1
1.878593,1.552871,9.488768,-0.091235,0.324695,-0.317825,1
0.216749,3.997437,12.497212,0.076115,-0.072899,-0.076831,1
-0.079934,2.182761,6.235882,0.402548,-0.013217,0.014069,1
-0.486638,0.590372,9.842333,-0.023501,-0.005914,0.017516,0
-1.695674,1.557661,11.211535,-0.209044,0.173648,0.247434,1
-1.036594,2.863096,11.526031,0.118969,-0.230264,0.007019,1
-0.265997,3.301684,8.873996,0.014942,-0.197388,-0.194218,1
-0.134121,3.645818,8.167166,0.043915,0.084387,-0.109047,1
-1.696123,1.104254,9.984387,0.36286,-0.095146,-0.208761,1
-1.099464,2.213746,7.662715,-0.058215,-0.400891,-0.202728,1
-0.455054,-0.321232,10.85333,-0.25044,0.215177,-0.259646,1
-2.295776,1.263972,11.419603,0.15927,0.262451,0.433358,1
-0.712668,0.545765,11.33458,-0.157719,-0.588085,-0.066773,1
-0.222288,3.910618,8.851543,0.031178,0.071244,0.170597,1
-0.199385,1.310674,6.769223,-0.335925,0.372333,0.304195,1
1.441502,1.556463,8.419392,-0.190319,-0.015332,-0.189685,1
-0.652643,3.99594,9.687106,-0.087921,-0.139885,-0.253153,1
-0.215701,2.912344,6.382278,0.066573,0.110477,0.256906,1
0.203427,3.547772,9.613608,0.108681,0.016025,0.199567,1
1.278342,1.796265,10.222243,-0.071169,-0.85103,-0.211116,1
1.417103,-0.13936,11.345657,-0.12764,-0.528953,-0.098283,1
-0.278122,3.595373,7.573501,0.028629,-0.301106,-0.026591,1
1.299897,2.491569,13.92644,-0.322929,-0.259558,-0.260877,1
-0.162712,3.216811,7.255562,0.179925,0.232915,0.146526,1
0.038021,1.866618,7.794142,0.271222,-0.016151,-0.480023,1
0.481549,3.391797,13.705649,-0.190956,-0.352815,0.19481,1
-0.228275,3.097958,8.018675,0.069232,0.197967,0.302797,1
-0.062121,3.295996,8.244855,0.472819,0.202705,-0.010369,1
-0.757425,0.635728,11.034753,-0.033688,0.084449,-0.189342,1
2.271227,2.482138,10.706336,0.220949,-0.265348,0.030894,1
-0.959804,1.606908,8.613688,0.191242,-0.418907,0.227552,1
0.389789,2.903662,6.593638,-0.366991,0.368885,-0.624344,1
-0.528102,2.244133,10.233469,-0.392627,-0.174727,0.064767,1
0.962648,2.213746,11.944561,-0.252864,0.244559,-0.461118,1
-0.171244,2.765349,6.530021,0.09654,-0.205877,-0.035331,1
-0.279768,3.21726,11.812985,-0.265243,-0.334538,-0.400834,1
1.088237,1.417702,11.765833,0.23287,-0.140789,-0.023385,1
0.605641,2.570455,9.629176,0.311816,-0.110932,0.20859,1
0.683329,0.890349,7.230863,-0.344003,-0.142905,-0.117301,1
-0.626148,1.304388,7.773335,-0.168117,-0.591935,-0.072231,1
-0.359702,3.255879,8.345745,-0.829497,0.194428,-0.456444,1
0.401914,1.271456,13.419145,0.011697,-0.129809,-0.032758,1
0.030536,2.027983,10.659783,0.072046,0.219452,-0.395812,1
0.291145,1.273701,12.539873,-0.316396,-0.10662,-0.04622,1
2.141746,1.786236,7.939041,0.12104,-0.128274,0.021241,1
0.981509,2.589166,11.411071,-0.006881,0.319687,-0.178718,1
1.208587,1.788181,11.027269,-0.148781,-0.063424,0.18318,1
0.957708,2.722988,12.953763,-0.221146,0.675045,0.232435,1
-0.44263,2.921026,9.325607,-0.261625,0.291809,0.12057,1
-0.736918,1.617237,9.977352,-0.064568,-0.000778,-0.067334,1
0.922083,1.139131,7.153774,-0.083789,0.168404,0.324151,1
0.294288,1.382076,10.819351,-0.148239,0.04766,-0.138411,1
-0.421224,2.01481,7.40061,-0.16711,-0.166478,-0.003664,1
1.06264,2.550696,11.315419,-0.035716,-0.147975,-0.069038,1
0.058528,0.239951,13.339959,0.107129,-0.118437,0.201125,1
1.31741,2.430346,11.563603,0.175739,0.190069,0.290093,1
-0.023501,2.377656,6.681506,0.230106,-0.113961,-0.138457,1
-0.869392,3.939208,11.572734,-0.071812,-0.12352,-0.120904,1
-0.459095,3.104544,10.456206,-0.189059,-0.344605,0.171545,1
-0.546663,1.189127,8.053253,0.025344,0.010451,-0.017817,1
-0.554597,1.883383,9.21828,-0.538342,-0.853913,0.063892,1
-0.098495,4.1838,12.841197,-0.103522,-0.059994,-0.000628,1
0.031435,1.819915,6.617888,-0.092779,-0.350017,-0.304379,1
-0.378862,2.617158,7.683372,0.705361,-0.30442,0.582627,1
-0.420027,3.734883,9.004675,-0.025246,-0.383487,-1.441765,1
-0.063767,0.304766,9.024284,0.158302,-0.053492,-0.014658,1
0.108375,2.772235,13.760136,-0.017003,0.208113,-0.116135,1
1.532962,2.721341,13.135335,0.307454,-0.189543,-0.159601,1
0.027842,2.756218,11.401041,-0.563673,-0.106653,0.337922,1
-0.204175,0.944236,10.758428,0.649769,0.309896,-0.497949,1
-0.608934,2.392625,7.542066,-0.135665,0.151621,0.97013,1
1.155148,1.691033,7.880213,-0.032088,-0.026468,-0.013032,1
-0.892744,3.950136,11.245665,-0.275565,0.357174,-0.171457,1
-0.168699,0.088915,10.981464,0.101608,-0.28231,0.363145,1
-0.224683,3.169958,9.754016,-0.066855,0.104983,-0.004919,1
-0.124242,2.46208,7.51153,-0.003715,0.252137,-0.289695,1
1.365011,0.924178,10.769056,-0.137738,0.245041,-0.491679,1
0.650847,2.016756,6.546786,0.023347,0.219699,-0.245458,1
-0.347278,2.609374,11.206446,-0.249464,0.048215,-0.139595,1
1.814826,2.907853,13.179792,0.623894,-0.232604,0.168138,1
0.522563,1.463507,7.153025,0.024893,-0.196624,0.259752,1
-0.009131,3.832031,7.442074,0.191206,0.118427,0.074826,1
0.136815,1.370849,6.725365,0.292481,0.235937,-0.310333,1
-0.287103,1.59164,8.164173,0.001553,0.038721,-0.123609,1
-0.088915,1.442101,11.844569,0.265761,-0.335109,0.118687,1
0.866847,0.705034,7.667505,0.161943,0.006541,-0.096699,1
-0.658181,1.147214,9.638457,-0.574329,-0.355742,-0.068979,1
-0.239352,2.436633,8.802894,-0.384097,-0.058282,0.425203,1
0.614622,3.1981,9.0165,0.027214,-0.109272,0.147271,1
-0.169148,3.052153,7.980355,0.286693,-0.0735,-0.311451,1
-1.067281,1.413062,11.183993,-0.09513,-0.52036,-0.085863,1
0.812959,1.821861,6.810687,0.4689,0.130011,-0.173617,1
-0.746049,1.576671,7.302864,-0.34643,-0.370317,-0.015691,1
1.66364,1.415457,7.670649,-0.345604,0.168244,0.293938,1
0.694855,4.011658,9.161998,0.166709,-0.179611,-0.068584,1
-0.331561,2.037413,9.989926,0.343846,-0.165997,0.120278,1
-0.498014,2.553989,11.177556,-0.001296,-0.258548,-0.179577,1
-0.166304,2.733615,8.877739,0.220601,0.050498,0.250846,1
0.36554,2.44786,8.827443,-0.235416,0.068983,0.092986,1
0.278571,1.359024,8.268805,-0.023821,0.064377,0.302582,1
1.167422,2.516567,10.024654,0.252523,0.034237,-0.073121,1
-0.076341,3.13553,7.483688,0.170531,-0.106369,0.055246,1
-0.529748,-0.406255,11.046429,0.068642,-0.193703,0.123088,1
-0.23067,0.947679,10.566527,0.229171,-0.142783,-0.486011,1
-0.300725,0.233065,13.446238,-0.175434,0.070837,0.152408,1
-0.389191,3.768863,12.059073,0.164848,0.035839,-0.046055,1
0.000449,2.782264,7.358398,0.227144,0.016075,0.063976,1
-0.207169,1.093027,7.974816,0.117567,0.026652,0.214986,1
0.52421,1.876647,14.121784,0.409311,-0.04434,0.066053,1
-0.202529,3.589835,8.673863,0.222018,-0.108964,0.124729,1
0.904868,1.330583,7.919282,0.263992,-0.081601,-0.06091,1
-0.856219,3.214416,11.48846,-0.908381,-0.556143,-0.26849,1
0.704435,2.831362,8.835975,-0.061872,0.403649,0.098822,1
-0.790207,4.566703,10.600806,0.859581,0.594655,0.241029,1
-1.485062,4.098477,12.139306,-1.04124,0.279008,0.422147,1
1.191672,0.808319,7.142846,-0.003937,0.05632,-0.306129,1
-0.304766,4.021387,9.627829,0.110964,0.355306,0.181847,1
0.358954,2.455194,8.162376,0.060877,0.291247,-0.979869,1
-0.056732,4.268673,9.155711,-0.048401,0.002184,-0.16674,1
-1.129701,3.967649,8.835526,-0.288189,0.159232,0.042466,1
0.785267,1.60137,11.248509,-0.061543,0.045131,0.072588,1
1.456022,1.652863,9.364676,-0.179876,0.086435,-0.5108,1
0.06242,1.165177,13.178894,-0.019899,0.275609,0.145633,1
0.186812,3.117118,6.74692,-0.059971,-0.096382,-0.138033,1
1.808389,0.757575,13.214221,0.159976,0.236256,-0.232286,1
1.356779,1.533561,9.176218,0.454604,-0.118388,-0.194367,1
1.125809,0.296982,6.95813,0.265812,-0.015468,-0.039049,1
0.201032,3.870501,9.50703,-0.164097,0.12556,0.016018,1
-0.016017,3.66902,9.68037,0.200045,0.720909,0.200812,1
0.541424,2.349364,6.804999,0.214084,-0.026901,0.07217,1
0.181123,2.716252,10.202783,0.148437,0.058189,0.1794,1
0.420775,2.446962,10.791808,-0.51779,-0.222236,0.151227,1
-0.162861,0.670605,7.589967,-0.251287,0.360079,-0.294238,1
-0.646356,3.499124,7.789502,-0.648411,-0.183149,0.343631,1
0.575553,1.463956,9.313632,0.262736,-0.033297,0.028375,1
-0.208217,1.651965,6.9249,-0.500373,-0.008292,0.166252,1
0.177531,1.997895,6.43886,0.250082,0.428924,-0.23987,1
-0.791105,1.698219,8.100255,0.065105,0.04904,0.088207,1
-0.657732,2.997367,10.325229,0.013386,0.02561,0.013341,1
-1.511856,1.136437,14.761104,0.298979,0.098486,-0.13103,1
0.425116,1.603915,9.977053,-0.064827,0.17398,0.103118,1
0.908012,2.532134,13.27694,-0.252736,-0.508705,0.066428,1
-0.347128,3.348986,10.310858,0.20015,0.062566,0.037038,1
0.155227,0.73557,12.501703,0.230349,0.110516,-0.082046,1
0.594713,1.406775,12.732972,-0.098163,0.502764,0.167061,1
-0.589624,1.767674,9.852811,0.091076,-0.120427,0.227088,0
0.029938,0.156275,13.973143,-0.004748,0.012356,0.034139,1
0.420176,2.561473,9.003178,-0.073475,0.19545,-0.025997,1
0.825982,2.395918,12.649894,0.165863,-0.093625,0.142528,1
0.367186,0.845891,10.383008,0.010551,0.187236,-0.114118,1
0.771795,1.250949,6.792724,0.006043,-0.009494,-0.367306,1
0.661474,2.013313,6.04473,-0.084247,-0.168704,0.042684,1
-0.3847,2.771038,6.900949,0.218914,0.264826,-0.234027,1
0.141606,2.047143,13.395344,-0.433662,0.131418,0.032723,1
1.55347,-1.831142,10.793455,-0.433617,0.301374,0.027078,1
-1.050665,2.217489,11.724519,-0.265579,-0.181287,0.015618,1
-0.212259,2.931504,7.558382,-0.004188,-0.009897,0.198412,1
0.642165,0.730631,9.286539,0.077444,0.101195,0.032506,1
-0.648901,1.517694,7.202422,0.009756,-0.012445,-0.003731,1
-0.797542,1.139281,7.553892,-0.134914,0.730878,-0.036708,1
0.013173,1.671125,6.889423,0.227958,0.087026,0.12028,1
1.060395,1.91377,9.53128,0.410911,-0.127994,0.124884,1
0.042961,1.92335,9.490265,-0.253565,0.352385,0.270532,1
-1.916465,0.406704,12.056678,0.301695,0.239129,0.061037,0
-0.119452,3.648663,9.80985,0.16167,-0.073377,-0.09505,1
0.10119,2.722688,11.049572,-0.179873,-0.169981,-0.071036,1
1.33223,1.46171,8.691376,-0.093703,-0.995996,-0.016102,1
-0.231419,2.313739,8.597821,0.302816,0.141739,-0.125312,1
-0.145947,3.417393,7.173533,-0.178384,-0.324466,0.379903,1
-0.795296,2.23605,9.215586,-0.223214,0.150285,-0.091727,1
-0.782722,0.90397,10.419383,-0.371093,-0.220988,0.157313,1
0.707878,2.301314,13.850398,-0.102432,0.079915,-0.039979,1
0.47631,2.167493,13.124258,1.072004,-0.27219,-0.002161,1
-0.417332,3.253933,9.253457,0.196322,0.12911,0.177816,1
0.015418,3.308719,7.299121,0.168819,0.11309,-0.016783,1
0.837059,1.503623,9.059161,-0.28765,0.356657,-0.508722,1
0.994981,2.555186,10.007589,0.130918,0.182216,0.059839,1
0.393681,1.912722,11.528576,-0.053141,0.331674,0.098401,1
-0.739462,1.140628,9.895772,0.220775,-0.185146,-0.325712,1
-0.203277,3.812871,9.170679,-0.229929,-0.11188,-0.210129,1
0.904569,2.705025,11.97884,-0.427414,-0.486347,0.028437,1
-0.473016,3.117717,6.611302,-0.017846,-0.005162,0.045462,1
0.074844,1.793121,7.172335,0.121581,-0.535615,-0.138492,1
0.935854,1.275947,7.662416,0.065195,-0.079763,-0.101336,1
0.496517,3.051704,8.948541,-1.314934,0.151991,-0.474363,1
-0.733325,3.35183,11.787837,0.213521,0.048133,-0.419252,1
0.25477,1.607507,14.217584,-0.457004,0.114311,0.40634,1
0.305515,2.095043,7.927515,0.04513,-0.278809,0.216825,1
0.017663,0.786614,12.747791,-0.704642,-0.188489,-0.556626,1
-0.527503,3.546425,11.404484,0.05557,-0.239258,0.025984,1
-0.324675,1.721869,10.300979,0.20399,0.601995,0.203287,0
-0.652044,1.510359,9.455537,0.05443,-0.08393,0.078203,1
-0.842897,2.230512,8.658145,-0.13091,0.391059,-0.33347,1
0.61088,0.703986,8.705148,0.17466,0.056433,0.169357,1
0.279169,2.947521,8.88672,0.306952,0.350566,-0.372727,1
0.408351,0.63019,7.111112,-0.260679,-0.054422,-0.421639,1
0.405058,1.133892,9.909992,0.13757,0.094848,0.283097,1
0.448318,2.25551,7.124734,-0.423767,-0.213182,0.12164,1
0.99543,1.570534,10.383008,0.182662,-0.003623,0.234875,1
-0.765957,4.34711,9.305549,-0.068932,-0.305755,0.0171,1
0.045954,3.490142,11.909833,-0.321057,-0.087112,0.231839,1
1.389111,0.462987,10.70918,0.133801,0.05623,-0.041169,1
0.835113,4.171226,11.880794,-0.21413,0.016191,0.158941,1
-0.208067,3.306774,7.749684,-0.17784,0.043156,-0.263889,1
-0.594564,2.762805,7.683971,-0.021383,0.330119,-0.027106,1
-0.111967,1.257685,8.515043,-0.037103,0.064752,0.0208,1
-1.576671,1.377436,9.186996,0.091396,0.122318,0.543455,1
0.263901,2.978506,11.747271,-0.111469,-0.422475,0.001996,1
-0.921484,2.264042,12.186907,-0.293563,-0.624496,-0.029692,1
0.073497,0.311951,10.396331,-0.04925,-0.059143,0.086971,1
-0.152682,2.100133,6.762188,0.033263,-0.034366,0.188914,1
-0.573158,2.110761,7.324269,0.035177,-0.005821,-0.189287,1
-0.39892,2.147434,7.022197,0.05983,-0.158346,-0.175151,1
0.815055,2.161206,9.684112,0.332226,0.026788,-0.073761,1
0.343236,1.183439,8.17031,0.078684,-0.124765,0.281539,1
0.329465,3.974984,9.37216,0.139986,-0.11762,-0.231043,1
1.336571,1.683848,9.14643,0.340966,0.051727,-0.316963,1
-0.315095,1.753154,12.292438,0.048436,-0.293559,-0.223515,1
1.523382,1.674418,10.164762,-0.551225,0.114483,0.206933,1
-0.163011,3.156336,6.417904,-0.940918,0.201698,-0.189471,1
-1.162483,1.685944,9.939181,0.400794,0.164838,-0.019511,1
-0.297881,2.254162,7.22772,0.36651,-0.080206,0.009222,1
-1.152453,1.533411,8.455317,-0.028705,-0.435714,0.256751,1
-0.531096,3.546725,11.702964,-0.396591,0.440828,-0.305887,1
-0.328716,3.404221,8.051906,0.086006,-0.083601,-0.22454,1
0.27423,1.752705,8.248298,-0.413876,-0.194268,0.251252,1
1.204845,1.018033,10.993888,0.208059,-0.215575,-0.031379,1
-0.165107,2.662962,10.314152,-0.070107,-0.354638,0.080086,1
0.45191,1.947899,13.384567,0.134592,-0.142768,-0.250149,1
-0.055684,1.354234,6.55457,0.313706,-0.100403,0.015416,1
-0.853824,0.63962,12.394825,-0.394113,0.170181,0.280151,1
0.42781,1.722468,6.107749,-0.023637,0.076837,-0.022318,1
-1.27445,2.214345,9.222322,0.659127,-0.107683,0.33027,1
1.107098,1.371149,8.682844,-0.416156,0.445331,-0.441331,1
-0.080383,3.156636,8.354577,0.281884,0.029611,0.099804,1
-0.335303,3.09227,7.276518,-0.022607,-0.027669,0.073588,1
0.640219,1.897604,10.244097,-0.517147,0.404155,-0.169577,1
0.468376,0.984054,9.936786,-0.365603,-0.286199,-0.313149,1
1.781745,1.254391,12.09904,-0.036857,0.206202,0.454926,1
-0.198936,2.994972,8.073761,-0.062699,-0.323602,-0.086497,1
0.696951,1.953887,8.630004,-0.154535,0.478283,-0.073761,1
0.176932,0.957409,10.819201,0.564644,-0.055059,-0.62541,1
-2.379452,-0.506696,12.434642,-0.018465,-0.012736,0.016643,1
0.434995,1.323099,10.884166,0.107528,0.110873,-0.158867,1
0.700992,2.393223,7.672894,0.04391,-0.366548,0.028174,1
-0.413291,1.607208,12.346924,-0.075227,-0.105745,-0.072176,1
-0.260458,3.246748,8.418344,0.025145,0.192777,0.125363,1
-0.020807,4.154161,7.753127,0.200326,-0.234613,0.123447,1
-0.707279,1.977388,9.294921,0.209261,0.210095,-0.26906,1
-0.621059,3.119663,9.967772,-0.751818,-0.374944,-0.269175,1
0.135319,4.111051,8.711584,0.208207,-0.040436,0.117673,1
-1.366808,2.208956,9.128617,-0.018098,0.106748,0.203231,1
0.25492,3.132236,8.674761,0.07921,-0.111557,-0.178845,1
0.774639,2.139052,12.32043,-0.169502,0.073713,0.14602,1
-0.765508,1.922003,7.330107,0.306455,-0.074208,0.142621,1
0.409848,2.839894,7.061715,0.105609,-0.339511,0.237586,1
0.084424,2.090553,12.082275,0.199346,-0.115491,0.156554,1
0.571512,0.324974,10.158775,0.161151,0.228933,-0.118833,1
0.228724,-0.664618,10.782977,0.130504,-0.131255,0.204769,1
-0.167502,-1.714535,10.929672,0.0706,-0.783854,-0.417745,1
-0.771496,1.872756,7.447014,0.248119,-0.023208,-0.116105,1
0.287851,2.594704,7.457492,0.158083,0.519767,1.327332,1
-0.061073,2.604733,8.740624,0.085721,0.059597,-0.085877,1
0.248783,1.711691,6.539451,-0.006185,0.027646,0.018018,0
0.670905,1.286874,7.077432,-0.083042,0.130595,0.339818,1
-0.338147,2.32751,7.9347,0.349194,-0.517594,0.158976,1
-0.361199,4.296066,11.009007,0.026003,0.183559,0.221995,1
0.51463,2.282603,11.204799,0.300165,-0.178682,-0.004037,1
-0.592169,0.12499,10.516231,-0.117928,0.109525,0.258717,1
0.710273,2.602039,10.109976,-0.461244,0.006958,-0.298144,1
0.485141,1.925895,12.222234,-0.135078,0.122973,-0.007255,1
0.470771,1.275498,7.167695,0.20544,-0.283169,0.024068,1
-0.138462,2.391876,7.008127,-0.106192,-0.005195,-0.176334,1
-0.557141,4.027824,10.485396,-0.175527,-0.399882,-0.120956,1
0.547412,1.359772,11.030412,0.169672,0.469116,0.039344,1
0.078437,1.359473,6.882089,0.213881,0.048179,-0.040628,1
0.069905,3.300187,7.234606,0.21831,0.064374,0.193226,1
-0.852926,3.775599,8.149802,0.312358,-0.409184,-0.581255,1
0.377964,3.133733,7.097191,0.242449,-0.407679,-0.084449,1
-0.234413,3.706891,8.669073,0.112123,-0.184262,-0.165951,1
-0.000599,1.633104,10.053094,-0.063103,-0.016234,0.203482,1
1.373843,1.585353,8.507708,-0.256041,0.245096,0.047279,1
-0.367785,1.714535,7.577842,-0.259591,-0.032151,0.013072,1
0.313748,1.993554,10.386302,-0.086124,0.076289,0.094209,1
0.122296,3.971391,13.324242,0.047719,-0.001219,0.014728,1
0.160466,2.605182,10.170301,-0.201443,0.175347,0.103183,1
-0.464334,4.511917,8.645122,0.38402,-0.052417,0.143366,1
0.315694,2.803969,6.896459,0.178471,-0.093548,0.015766,1
-0.078587,2.65922,9.397159,-0.071435,-0.094982,0.016941,1
0.882565,0.147892,13.819861,0.066084,-0.132232,0.059497,1
0.150287,3.275938,6.816675,0.20653,0.183772,0.412726,1
-0.6974,2.897974,13.126054,-0.525849,0.221428,0.070881,1
-0.852178,1.371298,11.198662,0.127576,0.001824,0.213654,1
0.0241,3.438649,10.679841,0.093176,-0.163772,0.058835,1
0.124092,2.930905,6.710994,-0.10426,0.104771,0.530823,1
0.087418,4.696783,12.711566,-0.019643,-0.290243,-0.049902,1
-0.228874,3.531307,7.757917,0.189913,-0.230422,0.137824,1
-0.460443,3.907774,11.765983,0.065416,0.129623,0.003637,1
-0.436941,2.764152,9.606723,0.217022,0.19234,0.119757,1
0.737816,0.266895,13.024416,-0.189545,-0.306416,0.044372,1
0.270937,3.829187,9.958342,0.33984,-0.238066,0.008637,1
0.372426,1.117426,7.505243,0.369733,0.022514,-0.114768,1
1.107996,1.058599,11.45927,0.042291,0.259029,-0.011427,1
0.2886,2.787503,7.270381,-0.060581,-0.09223,-0.027642,1
0.075742,2.19279,8.646021,-0.272157,-0.054598,-0.102374,1
-0.787213,2.036964,7.604486,0.087678,0.17685,-0.002626,1
-0.427212,1.91886,8.58869,0.104086,-0.306708,-0.000181,1
-0.338446,0.76446,7.880961,-0.482086,-0.520294,-0.094836,1
0.104632,2.352508,7.096293,-0.226064,-0.632971,-0.278004,1
0.126188,1.576222,7.573201,-0.005701,-0.089848,0.116136,1
1.186732,1.369053,7.73741,-0.20399,-0.103589,0.463896,1
-0.415835,1.40887,10.645562,-0.020739,0.036869,-0.126506,1
-0.026046,0.083227,10.787617,-0.023721,0.249815,0.073653,1
0.044308,3.223547,7.073391,-0.081761,-0.029239,-0.277794,1
-0.685275,2.427352,13.128898,0.135398,0.132665,-0.108477,1
0.228575,1.249452,8.725954,-0.351746,-0.295298,-0.41344,1
0.049547,2.274819,6.471942,-0.295831,-0.034373,-0.303715,1
0.244891,1.560804,7.027287,0.116009,0.679347,0.027723,1
1.632505,2.68317,12.230766,0.237478,-0.000554,-0.060578,1
-0.819546,2.338737,10.046957,0.270194,0.246717,0.167717,1
-0.997975,1.280886,12.51742,0.162158,0.194986,-0.033431,1
0.069156,2.682572,6.121371,0.159314,0.066876,0.443124,1
2.075135,1.431324,12.091256,0.256733,0.054286,0.091922,1
0.19714,3.39015,7.830217,0.348156,-0.016211,0.013072,1
0.526006,0.936752,8.864117,-0.079964,-0.15409,-0.26048,1
-0.311053,2.397714,7.667056,0.121635,-0.126843,0.251767,1
-0.021705,3.250042,11.95489,0.123586,-0.060923,0.024137,1
1.867516,2.073039,9.140293,0.036066,-0.008993,-0.008882,1
-0.008083,1.536555,11.19013,0.10487,-0.111783,0.106778,1
-0.372126,1.498234,6.568491,0.298798,0.168087,-0.191014,1
-0.426014,2.057322,7.133416,-0.696959,-0.111561,-0.123509,1
-0.750539,2.85666,11.442655,0.181694,0.008727,-0.174496,1
0.143551,3.147954,6.537505,-0.265814,-0.402647,-0.207504,1
1.222059,0.584534,7.409592,0.084763,0.363676,0.117297,1
-0.084125,3.375481,11.51211,0.184986,-0.048031,0.007847,1
0.414787,2.677931,6.970106,0.108719,-0.001069,-0.183551,1
-0.667911,1.261427,9.63666,-0.791195,-0.238214,0.870846,1
-0.47107,3.02012,11.390563,-0.170612,0.205054,0.154044,1
0.380209,1.819017,6.854995,-0.307519,-0.408494,0.217178,1
0.393681,1.999542,6.674919,-0.354808,0.081528,0.187794,1
-0.353265,1.179996,9.158854,0.207721,0.024062,0.022248,1
1.536555,0.727787,7.236851,-0.236111,0.000702,-0.121893,1
-1.295406,3.90942,11.36826,0.406225,-0.185196,-0.340831,1
-1.043031,1.355581,10.500514,-0.132064,0.195154,0.042268,1
2.79379,0.433349,11.336526,0.157004,0.119799,-0.062485,1
0.216001,1.198258,6.6122,-0.139922,-0.075101,-0.246725,1
-0.382305,3.503614,7.802076,-0.272779,0.222218,-0.129064,1
0.278571,1.267714,10.115515,0.183867,0.274132,-0.103198,1
-0.284109,3.747607,8.48765,-0.008835,0.267144,0.257751,1
-0.031584,3.054099,8.54513,0.220222,-0.011892,0.171355,1
0.260907,1.219963,13.433814,-0.131461,-0.388641,-0.036368,1
-0.938548,2.013014,8.439749,0.479752,0.370836,-0.059253,1
0.088466,3.264711,6.002817,0.127252,0.036962,-0.406839,1
0.121248,0.871937,12.601246,-0.376275,-0.093474,-0.044503,1
0.466879,1.642684,7.089408,0.267785,0.406893,-0.044469,1
-0.765807,1.796714,7.42965,-0.637588,0.18683,-0.709094,1
0.695154,1.890269,8.185728,0.070596,0.031459,0.206952,1
0.766855,1.17326,6.75171,-0.049366,-0.076788,-0.136411,1
-1.258583,4.046385,11.167826,0.314972,0.404087,-0.194652,1
0.268691,2.254462,12.643308,0.265138,0.097609,0.009098,1
0.678539,0.503553,13.119917,-0.078534,0.024741,0.092774,1
0.797841,5.440736,11.256442,0.339028,-0.043963,0.089758,1
0.408051,3.416346,8.900491,0.177877,0.266444,-0.066808,1
0.554896,0.996777,7.070846,0.431321,0.053969,-0.110686,1
1.046624,3.700006,8.046517,0.052565,-0.091666,-0.047714,1
-0.671204,2.785108,11.829151,0.219984,-0.012364,-0.119384,1
-0.786614,2.95276,11.914025,0.06796,0.174862,0.176394,1
-0.313748,1.465153,13.231585,0.853555,0.219945,0.471504,1
1.124911,2.72179,12.779675,-0.283054,0.010024,0.207529,1
-1.140329,1.752256,10.685978,-0.13679,0.242605,0.312838,1
-0.824785,2.230063,11.337124,-0.143975,0.032319,0.05167,1
-0.117356,3.294649,8.938363,-0.283865,-1.009256,-0.106162,1
-0.409249,1.923799,7.644304,0.093123,-0.016007,-0.043057,1
-0.20702,3.052602,7.827972,0.128747,0.070136,0.377902,1
-0.662522,0.951422,9.664353,0.025369,-0.012976,-0.013015,1
0.755329,2.651287,8.9683,0.294111,0.090367,-0.294321,1
-0.82703,2.238295,10.103989,-0.448493,-0.112452,0.138186,1
-1.092129,3.353925,10.487641,0.14058,-0.225212,-0.841068,1
0.627196,1.117576,7.688162,0.196345,-0.054972,-0.067132,1
-0.497565,2.013762,9.390123,0.101731,0.082085,-0.034209,1
0.253722,1.900448,8.948242,0.067265,0.233557,0.047509,1
-1.306333,0.804128,10.120305,0.015632,0.007941,0.051503,0
-0.526904,1.732647,11.154504,0.578836,-0.291539,0.126381,1
0.390688,2.249821,7.946525,-0.071328,0.149235,0.440805,1
0.308658,1.265169,9.438323,0.203764,0.112217,0.217636,1
-1.742676,-0.35596,13.040432,-0.042903,0.119029,0.63045,1
0.555195,1.203198,9.987082,-0.087649,-0.372888,0.320493,1
-0.469424,1.558559,8.56953,0.056677,0.226023,0.317558,1
1.802103,-0.572559,7.924671,0.204126,0.129906,0.115131,1
-0.229173,2.912493,6.454428,0.156248,-0.176643,-0.171809,1
-0.063468,2.242936,6.249654,0.061882,-0.21319,-0.275263,1
-0.852178,4.644841,8.97309,0.171969,0.094456,-0.046741,1
0.20193,1.372197,7.976762,1.006444,-0.814329,-0.254581,1
0.789758,0.797691,7.715406,-0.194813,0.01669,-0.059027,1
0.308508,1.331032,11.000175,-0.310821,-0.871174,-0.802662,1
1.249751,2.360891,8.274194,0.128735,-0.067113,0.302663,1
0.17813,1.801803,9.231004,-0.356259,-0.628583,0.248104,1
-0.390688,1.923201,7.116501,-0.664954,0.058094,-0.048556,1
-0.508343,2.257605,9.164243,-0.438034,-0.212663,0.383222,1
0.213157,-0.656535,13.678855,0.107401,0.227827,-0.109551,1
-0.851429,1.118175,9.71375,0.003451,-0.297231,-0.093352,1
0.182321,2.540816,10.970686,0.145598,0.194315,-0.217131,1
-0.045954,1.385818,7.338789,0.463146,0.269778,0.066182,1
-0.393532,4.342619,10.815908,-0.921796,0.136168,0.388159,1
0.232018,0.029638,11.498638,0.12221,0.112802,0.080332,1
-0.82718,2.215692,9.076525,-0.165673,-0.162203,0.158189,1
-0.661325,0.722997,9.850117,0.067207,0.03902,-0.118651,0
-0.138761,3.17849,9.357641,0.249405,0.064788,-0.030167,1
-0.523312,3.392395,8.838221,-0.148678,-0.227629,0.044722,1
-0.72614,2.295477,8.823851,0.312108,0.066499,0.117446,1
0.167801,3.910169,8.343051,0.062847,0.26639,0.004208,1
0.613424,1.938619,10.31505,-1.237472,-0.215323,-0.622798,1
-0.001946,3.267705,7.392527,-0.895434,0.217076,-0.001426,1
0.083377,3.810476,7.102281,0.189572,-0.343157,0.270384,1
0.642165,2.028132,7.864196,-0.432137,-0.034884,0.259065,1
-0.798589,1.792073,9.619746,0.004224,0.00565,0.009946,1
1.926045,1.212928,11.23803,-1.09984,0.022537,-0.833311,1
-0.581241,2.61117,9.288934,-0.016722,-0.369389,0.043187,1
1.882485,-0.830174,12.728331,0.213602,-0.122192,-0.051896,1
-0.257315,3.037334,8.561596,-0.107918,-0.09966,0.107079,1
0.331411,3.394491,11.849808,-0.094786,-0.217376,0.19917,1
-0.417781,3.677103,10.280921,-0.422111,-0.546154,0.145385,1
0.210612,0.453108,14.101276,-0.326961,-0.159773,-0.137357,1
-0.124242,3.634292,8.481213,0.118486,-0.063705,0.205438,1
0.518073,1.903741,9.836645,-0.134313,-0.450185,-0.041298,1
0.603994,2.841242,12.347673,0.148294,-0.005009,0.029429,1
-1.264421,1.511108,8.854387,-0.039192,0.081427,-0.096319,1
-0.551004,2.165547,8.064031,0.283563,-0.092558,0.101056,1
-0.252076,1.14916,7.632029,0.04467,0.129235,-0.113964,1
0.382754,2.080524,9.808503,-0.220044,0.077376,0.074857,1
-0.01452,3.367397,11.721675,0.263772,-0.131118,-0.06544,1
0.297731,3.090174,5.730084,0.152312,-0.090942,-0.098676,1
0.046254,2.493664,6.596033,0.356995,-0.101365,-0.179479,1
-0.396525,3.587889,11.195668,0.16432,-0.051702,-0.051544,1
-0.264949,1.194815,10.130633,-0.026563,-0.299236,0.046967,1
0.114811,2.682871,7.55928,0.607039,-0.036118,0.388621,1
0.434397,2.705923,12.496613,-0.000824,-0.146552,-0.168169,1
1.337169,2.754272,12.018208,-0.121709,-0.278657,-0.084368,1
-0.611927,2.979255,9.310489,-0.412229,0.295657,-0.379391,1
0.005389,4.007915,10.147398,0.262935,-0.163786,0.220295,1
0.667612,1.742676,7.764953,0.040812,0.089688,-0.305886,1
0.237556,2.417623,7.53084,0.036207,0.321271,-0.172971,1
0.270488,2.051783,6.464158,0.287868,-0.084695,-0.124281,1
-0.593067,2.880759,7.237749,0.168328,-0.062845,0.140888,1
-1.269061,3.168761,10.725347,-0.111436,0.421394,0.074907,1
-0.934656,1.800007,9.6898,-0.097609,-0.215517,-0.252756,1
-0.398172,3.557502,7.048393,0.059455,-0.026335,-0.309444,1
0.088316,-3.381319,12.099788,-0.685389,0.121195,-0.22892,1
-0.752635,3.261867,10.457254,-0.029894,0.256847,0.410627,1
0.013921,2.132316,7.573501,0.191752,0.111679,-0.097196,1
1.402434,0.049098,9.801318,0.222583,0.171417,0.135856,1
-0.434546,2.895579,7.953411,0.253353,-0.456769,-0.095697,1
-0.008981,3.66917,8.219557,-0.141288,-0.315818,0.193903,1
0.382006,1.071023,12.065659,-0.005458,-0.028436,0.0365,1
1.351689,1.823957,9.164991,0.260057,-0.219715,0.054725,1
-1.331331,1.467997,9.500743,-0.748995,-0.123586,0.415801,1
-0.071402,3.346591,12.102183,0.15508,-0.319826,-0.242549,1
-0.722847,3.986061,10.051448,0.453937,-0.259056,-0.588374,1
0.386347,1.828298,12.645404,-0.396239,-0.279611,-0.292028,1
-0.743354,2.204765,8.517288,-0.316668,0.030614,0.312453,1
-0.66836,1.266666,11.237432,0.092389,0.140432,-0.152219,1
0.564027,0.786315,7.983798,0.246967,0.242865,-0.121945,1
-0.100291,2.531236,8.192464,0.336898,-0.030127,-0.052277,1
-0.570763,2.990481,6.173462,0.23132,0.097049,0.397858,1
-0.114811,2.945126,6.048622,-0.050612,-0.15809,-0.148374,1
-0.41823,2.947521,11.335777,-0.028581,0.081779,-0.342616,1
0.138163,2.280358,9.359437,-0.451333,-0.363987,-0.089033,1
0.545615,3.287464,9.600585,0.057386,-0.185683,0.07551,1
-0.8176,0.102686,10.56982,-0.296562,-0.149779,-0.260447,1
0.268542,2.823279,6.212681,-0.19965,0.109706,0.204771,1
0.174537,3.591182,9.914183,0.02549,0.040435,-0.207042,1
-0.919688,1.835633,10.005643,0.57995,0.145613,0.249024,1
0.948278,2.579586,13.6091,0.165035,-0.169982,0.237631,1
0.067061,3.099006,6.48227,0.116316,0.011295,0.009109,1
0.033381,2.145189,6.692433,0.014074,-0.067569,0.016732,1
-0.557441,1.954486,12.278666,0.097227,-0.159456,-0.189021,1
-0.255519,3.666326,7.598349,-0.367804,-0.297753,-0.296234,1
-0.176483,1.29825,8.239765,-0.394743,-0.203329,-0.079838,1
-0.621807,3.13044,8.633596,-0.284869,0.282696,-0.338232,1
-0.696202,1.581761,7.873178,0.27486,-0.178906,0.14084,1
-0.948727,2.956502,10.178234,-0.010952,0.13447,0.0888,1
-0.436492,2.539918,8.407566,-0.403552,0.128332,-0.334312,1
-0.142204,2.953508,6.710396,0.174476,0.243525,-0.222257,1
-0.730331,1.801504,9.542207,-0.05802,0.038187,0.011267,1
0.141156,3.7027,6.774762,0.015482,0.063957,0.032908,1
1.08689,0.0723,11.134595,-0.070712,0.11764,-0.024294,1
0.161364,3.322191,7.546856,0.297672,-0.196347,-0.102243,1
-0.062869,2.99602,7.531438,-0.713699,-0.328141,-0.26942,1
0.072898,3.551515,7.000343,0.371121,-0.115079,0.213151,1
-1.340013,2.986739,12.839849,0.169279,0.031199,-0.28045,1
-0.210911,2.853217,6.91008,-0.470277,0.16954,0.06843,1
-1.430725,2.643503,12.795542,0.053783,0.152103,-0.240743,1
0.29324,2.809807,8.966803,0.278897,0.262513,-0.338985,1
-0.056882,2.25536,7.664961,0.518463,-0.287553,-0.454228,1
-0.136516,2.331552,6.710695,0.351503,0.101346,0.160622,1
-0.114512,3.482807,7.930808,0.210312,-0.006572,0.250845,1
-0.900827,1.559008,10.435549,-0.303253,-0.210831,0.133019,1
0.196392,2.910398,5.512736,0.259409,0.018616,0.023454,1
-1.454974,3.302882,11.900403,0.354014,0.519212,0.322301,1
0.069905,1.441951,8.229437,-0.334767,0.248436,0.03871,1
0.335602,2.254162,9.808653,-0.595246,-0.094589,0.119252,1
-0.602048,3.436404,8.457712,0.539216,-0.244445,0.240603,1
0.068707,3.017874,9.134305,0.036732,0.668198,0.74319,1
-0.803828,1.046773,9.745933,-0.122855,-0.344417,-0.322737,1
0.185464,0.103435,10.158176,-0.028213,0.194211,0.733215,1
0.970881,1.469045,6.399492,0.244517,-0.114512,-0.042234,1
-0.033081,2.499802,5.782026,-0.114289,-0.162041,-0.198485,1
1.13494,1.162034,13.334421,-0.034454,-0.194909,0.245621,1
0.367935,-0.326471,12.90197,0.33612,-0.173028,0.021065,1
-0.48559,1.298849,8.134534,-0.453427,-0.192137,-0.150157,1
0.219893,1.503174,8.267158,0.200775,0.255733,0.142807,1
-0.033081,2.190395,10.342892,0.553408,0.500562,0.580232,1
1.221909,2.997966,10.419682,-0.115771,-0.063676,-0.00591,1
0.717159,1.244961,11.706107,-0.088473,-0.067042,0.010223,1
-0.174537,2.978506,8.11253,-0.063464,-0.025217,-0.006916,1
0.155826,1.737736,11.046129,-0.055707,0.046142,-0.455271,1
0.741558,1.469494,7.208709,-0.081837,0.028244,0.118517,1
0.355062,1.333277,7.269782,0.054759,-0.13997,0.081714,1
-0.878373,1.811234,8.412356,-0.056636,-0.003322,-0.061127,1
0.639919,2.093247,7.725135,-0.254389,0.010647,-0.104934,1
0.667163,0.874182,9.882749,0.284299,-0.05038,0.012352,1
-0.002694,3.373984,6.324798,0.048777,-0.05975,-0.373846,1
-0.138612,3.424129,7.344327,0.141673,-0.132853,-0.273365,1
-0.301922,2.324366,7.193591,0.111046,0.29662,0.377417,1
-0.315993,3.022664,6.7562,0.138583,-0.00438,0.060706,1
-0.477657,2.281106,6.890621,-0.43752,0.084883,0.007577,1
-0.593815,1.523532,11.342812,0.183712,-0.221549,-0.057379,1
0.277673,3.77021,11.10825,0.210547,0.181166,0.360284,1
-0.232018,2.73152,6.468948,-0.302333,0.250193,-0.34373,1
-0.398771,2.427951,10.06477,-0.236157,-0.118055,0.020318,1
-1.26951,3.189717,9.955947,-0.375339,0.133501,-0.299546,1
-0.07679,3.591631,10.78612,0.317923,-0.08837,0.200806,1
-0.412542,4.665947,10.720706,-0.211404,-0.422754,-0.075996,1
0.38934,2.186353,6.930288,0.395297,0.196042,-0.322611,1
-0.546663,1.391357,8.900791,0.212535,-0.386884,0.04602,1
0.181722,3.59702,11.021581,-0.185581,-0.016107,0.132397,1
0.781974,1.218915,7.849826,-0.30531,0.136058,0.365442,1
1.59179,1.276246,11.907289,-0.611567,0.078828,0.138613,1
-0.215252,1.237926,6.926846,0.16327,0.315629,-0.107888,1
-0.12499,2.766397,5.625452,-0.078281,-0.20665,-0.177483,1
0.667612,1.597777,7.025191,-0.485323,0.40754,0.263514,1
-1.00501,1.395249,9.519305,0.733485,0.744028,0.418679,1
-0.433798,0.953068,10.428663,0.111153,0.347848,0.0405,1
0.324076,2.163601,7.259903,0.016762,0.014909,0.267793,1
-1.847458,1.271456,10.475366,-0.006022,0.005447,0.030844,1
-1.497336,1.511856,9.720037,-0.406163,-0.115333,-0.222238,1
-0.86056,3.743565,12.308904,-0.029031,-0.057414,0.064728,1
-0.476908,0.371677,11.642789,0.389974,-0.071974,0.086042,1
-0.752934,3.34225,11.966416,0.319832,0.253241,0.03099,1
1.21203,1.599574,13.739179,0.464104,0.159829,0.477553,1
-0.351918,0.659678,9.42036,-0.055831,-0.633386,-0.215918,1
0.616418,3.237468,7.019054,-0.969494,0.01462,-0.571789,1
-0.532143,3.419639,10.258168,0.01473,0.612842,0.167133,1
-0.311353,2.487527,6.880741,-0.369696,-0.042554,-0.136119,1
0.078886,1.75989,8.275391,-0.128009,-0.199164,-0.58217,1
-1.176553,0.258812,9.815538,0.106545,-0.16529,0.0751,1
0.207469,3.433859,9.106762,0.245319,-0.228715,0.138857,1
-0.580044,2.241289,7.177874,0.033066,0.632326,0.017666,1
0.476459,3.496729,8.135732,-0.17583,0.415549,-0.287744,1
-0.285456,0.688418,12.300072,0.149461,-0.015852,-0.096733,1
-0.154778,2.88031,7.759414,0.454535,0.151361,0.067638,1
-0.508642,0.483944,11.186088,0.438056,0.438805,-0.183792,1
0.179477,2.193089,8.552016,-0.909222,-0.167285,0.393646,1
0.704435,2.924469,10.981763,-0.187802,-0.141779,-0.093954,1
-1.11548,1.656306,12.255465,-0.087948,-0.169075,0.117749,1
-0.202679,2.562521,11.003169,-0.344496,-0.236283,-0.02921,1
0.192649,3.297044,7.469916,-0.008421,-0.059827,-0.038625,1
0.443378,1.535657,12.553495,0.776929,-0.177014,0.156907,1
-0.405507,0.977767,8.011939,0.424125,0.225804,-0.143005,1
-0.718955,4.365222,10.623558,-0.505569,-0.300912,-0.007139,1
-0.570763,3.758684,7.440428,-0.034409,0.152137,0.088603,1
-0.408051,2.931654,8.390202,0.031974,-0.015951,-0.061308,1
0.785117,1.427581,9.283694,-0.541128,0.140005,0.091985,1
-0.054038,2.07274,6.560408,-0.191576,0.010574,-0.167174,1
-0.386496,0.913251,10.195598,-0.043198,0.026233,-0.048024,1
-0.261357,2.118844,7.193291,-0.004908,-0.133605,-0.2393,1
-0.359403,2.104923,7.318581,-0.279732,0.22697,0.104536,1
-0.593665,2.094744,7.719298,0.086042,0.000826,0.485319,1
-0.054786,3.790118,10.708581,0.528424,0.04586,0.111841,1
0.34159,1.681004,10.586435,0.022241,0.276326,-0.084167,1
0.348625,1.223556,7.602391,0.122406,0.072453,-0.318507,1
-0.613424,2.857258,6.929241,0.130489,0.064809,0.414305,1
-0.044308,1.420995,7.883207,-0.141631,0.122951,0.022958,1
-0.442929,1.589245,7.599397,-0.660127,-0.017222,0.428938,1
-0.699944,0.91834,9.605226,0.206345,-0.325771,-0.081399,1
-0.790806,1.020278,11.897709,-0.17931,0.152555,0.193134,1
0.001647,2.333647,11.35823,-0.228661,-0.174404,-0.078028,1
0.314945,3.418591,8.000862,0.127122,0.046477,-0.270415,1
1.179846,1.520987,9.24268,-0.506951,0.007446,-0.088311,1
-0.912353,2.579436,6.702163,-0.102683,-0.066279,-0.003398,1
-0.523761,2.893932,6.234984,-0.106788,-0.166936,-0.114832,1
-0.161215,1.178948,9.910142,-0.217654,-0.580868,-0.195619,1
-0.688269,1.985172,10.123598,-0.558392,-0.426045,0.181463,1
-0.266446,3.293302,8.448431,0.184948,0.064183,0.107565,1
0.623903,-0.335003,12.765454,-0.664552,-0.20562,0.15874,1
0.781824,1.572181,9.356293,0.111944,-0.260918,-0.04118,1
0.200733,3.677403,9.288784,-0.063076,0.091015,0.304545,1
-0.315993,3.075055,8.003107,0.091946,0.123272,-0.186273,1
-0.404309,1.748215,7.514673,-0.015855,-0.025493,0.253863,1
0.525108,0.438887,8.557554,-0.255519,0.000848,0.125558,1
0.27408,0.361947,7.919581,0.202425,0.12769,-0.040926,1
0.128134,2.952909,8.337961,0.33739,0.688424,0.253983,1
0.955164,1.040037,9.11769,0.250652,0.075787,0.197381,1
-0.313598,1.895957,7.210805,0.160823,-0.271465,0.185597,1
0.138612,1.435365,13.318853,0.303494,-0.340997,0.021491,1
-0.399519,2.32287,8.455317,0.797289,-0.385177,-0.232925,1
0.529299,1.599125,6.79991,0.378933,0.41491,0.268683,1
0.331561,2.282603,6.906787,0.037578,0.093998,-0.143559,1
0.247885,2.899021,7.887248,-0.177984,-0.0262,0.032484,1
0.427361,2.196832,6.79018,0.155782,-0.307674,-0.007672,1
-0.249381,2.24084,9.086255,-0.086233,-0.195154,-0.033327,1
-0.49547,2.401007,9.370065,-0.008198,0.314423,0.359534,1
0.57226,2.372267,10.805729,0.058633,0.011908,0.070438,1
0.390987,1.036445,10.13198,0.221342,-0.123417,-0.049097,1
-0.210762,1.12506,7.093299,-0.096079,-0.359985,0.232678,1
0.421374,0.345182,10.145752,0.236195,0.103272,-0.006333,1
-0.196392,2.401306,9.226513,-0.163916,-0.267487,-0.4233,1
0.943338,1.518293,8.090077,0.165011,-0.064986,-0.250302,1
-1.2984,2.177073,9.588161,0.183684,0.032328,0.302522,1
-0.606688,2.705773,6.829847,-0.358456,0.235034,-0.372542,1
-0.186063,3.009192,9.313183,0.098605,-0.111951,-0.026714,1
-0.354313,1.109493,10.173744,-0.550683,0.191925,-0.288311,1
0.734672,1.106649,7.047794,0.006897,-0.217969,0.03116,1
-0.693807,2.118844,8.839867,0.009735,-0.12649,0.461167,1
0.218995,3.460504,6.892417,-0.102338,0.00461,0.193939,1
0.09146,3.624862,6.771768,-0.042721,-0.039561,0.093175,1
-0.268991,3.459755,8.22285,0.002165,-0.052808,0.048591,1
1.39929,2.503993,13.160034,0.037209,-0.325888,0.156639,1
0.393831,3.458708,10.033336,0.240665,-0.121714,0.089068,1
-0.31734,1.790876,11.260484,-0.103431,0.008777,0.073251,1
0.543819,3.170108,8.311766,0.220723,-0.138562,-0.088745,1
0.403261,2.865791,6.841074,0.072387,0.196547,-0.863634,1
-1.705104,4.381389,10.460098,0.070979,0.011475,0.005587,1
0.441432,2.16375,6.730454,-0.147213,-0.6242,0.029675,1
-1.044378,2.027983,10.654544,-0.121321,0.031198,0.22919,1
0.421374,4.043841,10.120903,0.058131,0.144024,-0.772373,1
-0.43784,2.300416,13.988411,0.449074,-0.018553,0.097514,1
0.274978,4.4962,10.339449,0.048818,0.299208,0.000805,1
-0.237406,1.180146,9.786199,-0.018835,0.223372,-0.026318,1
1.487307,1.285527,6.86712,-0.011684,-0.019867,0.137707,1
0.24549,0.957409,7.810009,0.129014,-0.190321,0.129925,1
-0.27887,3.57292,12.578343,-0.324849,-0.142032,-0.031496,1
0.364492,4.731211,10.944341,0.309596,0.25238,0.474871,1
-0.510888,2.89019,9.21394,-0.211097,0.230197,-0.005462,1
-0.417332,2.914439,7.565418,-0.096247,-0.564381,-0.253287,1
0.157622,2.098037,12.908107,-0.252024,-0.355075,0.221985,1
-1.148412,3.403922,12.09904,0.393762,0.018745,0.215723,1
-0.084125,3.104394,8.32898,0.559858,0.10635,-0.150559,1
-0.030536,1.866618,12.970677,-0.490246,0.230821,0.124493,1
-1.027463,1.403332,10.627899,-0.294347,0.020585,0.601177,1
0.714015,3.068469,12.072545,0.272159,-0.001437,-0.020872,1
-0.085173,1.989513,6.856492,0.021622,-0.130604,0.186845,1
-0.582888,0.736768,7.936346,0.393774,-0.130921,0.129813,1
0.646057,1.451232,8.134834,-0.64525,-1.14434,-0.447682,1
0.806223,3.888015,12.751982,-0.079011,-0.075707,-0.330003,1
-0.961451,1.78878,9.741143,0.041435,-0.060697,-0.103229,1
-0.348176,1.332379,10.086475,0.271563,-0.199864,-0.047916,0
-0.37048,2.743046,6.14068,0.294675,0.063098,0.163713,1
0.560584,1.498234,6.81428,-0.394852,0.047093,-0.458075,1
0.415835,2.410288,6.177204,0.557357,0.369209,0.330755,1
-0.13951,3.506458,7.613318,0.040772,0.190425,-0.323165,1
0.150287,2.189048,9.270522,0.094917,-0.15403,0.156663,1
-0.326471,2.876868,7.529941,-0.107981,0.412672,-0.098019,1
1.196911,1.984274,9.248218,-0.14065,0.087382,-0.309751,1
0.483046,1.57727,8.987011,-0.36126,-0.235998,-0.031043,1
-1.289718,0.821791,9.788145,0.125675,0.241098,-0.335606,0
-0.060774,2.746638,7.416627,0.084834,0.185781,0.344142,1
-0.784818,4.22691,8.597372,-0.375216,-0.153325,-0.277403,1
0.1922,4.317621,11.556418,0.091479,-0.041159,-0.031588,1
-0.290845,2.038461,7.975864,0.219687,0.051859,0.487517,1
-0.425116,1.153651,13.382022,0.215074,0.193963,0.040192,1
-0.281115,3.995192,8.518635,-0.039177,-0.119197,-0.346559,1
0.266446,2.400259,7.859406,-0.303031,0.070224,0.632014,0
0.088316,2.386338,7.637717,-0.397327,0.352025,-0.349798,1
-0.228275,3.026856,8.233329,0.609459,-0.122507,0.070535,1
-0.242496,1.938469,8.671617,-0.501587,0.074612,-0.136134,1
-0.008233,3.347189,7.561376,0.248766,-0.129588,-0.021385,1
-0.44233,1.868115,12.926369,-0.116995,0.333928,-0.289222,1
0.12963,2.192191,12.747641,0.038704,0.036427,-0.0013,1
-0.584684,2.708917,8.854537,-0.229988,0.307192,-0.017659,1
0.111668,3.298391,7.337292,0.313123,-0.046613,0.006392,1
1.472338,3.696413,11.623179,-0.033904,-0.098761,0.398593,1
-0.364043,2.095492,7.90566,0.19433,0.073776,0.115749,1
-0.670605,2.602638,6.70845,0.062462,-0.262003,-0.000929,1
-0.724493,3.970942,8.812624,0.009071,-0.133636,-0.25588,1
0.848585,1.805096,7.898924,0.182062,0.029933,-0.022756,1
0.579295,2.778073,8.344248,0.249246,-0.001206,0.096165,1
0.730481,0.824336,10.183473,0.068009,0.0221,0.390248,1
1.387614,1.522334,13.576168,0.02564,0.078745,0.025268,1
0.206271,3.509901,11.656859,-0.030379,0.12659,0.139102,1
0.059127,3.819158,10.830727,-0.240957,-0.017237,0.13449,1
0.238754,2.19743,9.820628,0.152809,0.000756,0.621035,1
0.70713,2.55339,11.28608,0.426889,0.333737,0.261618,1
-1.001118,2.977309,9.727372,0.098216,-0.060901,0.552985,1
-1.176853,1.065784,10.527308,-0.501151,-0.087464,0.293488,1
1.598676,1.181493,10.876083,-0.04374,-0.087074,-0.280988,1
-0.734523,3.954177,8.038883,0.090065,0.069141,-0.065447,1
-0.646057,2.771636,6.943311,-0.063343,-0.199792,0.229988,1
-0.068108,1.755699,7.234606,-0.009482,-0.000783,0.008799,1
-0.681982,0.896486,9.825867,-0.169287,-0.051274,0.395726,1
0.30297,1.609303,8.271948,-0.06436,-0.011417,-0.647522,1
-0.483495,2.915487,6.255492,0.217672,-0.047664,0.15184,1
1.343307,1.710044,8.652607,-0.233092,0.128515,-0.052748,1
-0.959654,3.845952,11.070978,0.020858,0.195185,-0.220259,1
1.196462,1.124462,7.419321,0.068622,0.02351,0.072269,1
-0.352816,0.414189,10.63254,0.005458,0.149127,0.167717,1
-0.340392,5.014872,7.177275,0.048572,-0.228737,0.035614,1
1.599574,2.296075,9.393566,0.030892,-0.301953,-0.05774,1
0.031584,-0.235909,12.011921,0.126813,0.136236,-0.255035,1
0.609682,3.464695,10.550061,0.050454,0.077359,-0.215512,1
0.37048,1.636547,7.237899,-0.13161,-0.134373,-0.038087,1
0.934956,2.419868,11.228151,0.11511,-0.322087,-0.268941,1
1.168021,2.333348,11.159594,0.029777,-0.182506,-0.004464,1
0.775088,2.252067,11.731404,0.287111,-0.130243,-0.03338,1
-1.147065,1.991608,9.733509,0.10377,0.120819,0.537817,1
1.551524,1.054856,11.755205,-0.150299,-0.118326,-0.14018,1
0.454904,3.488795,9.933344,0.39803,0.175951,0.187861,1
-0.526156,2.749333,9.591904,0.123966,0.7086,0.051902,1
-0.099992,2.277065,12.193194,-0.365644,0.046406,-0.025759,1
-0.628842,1.095572,10.131681,-0.009473,-0.496926,-0.515215,1
1.245859,1.476679,8.757239,-0.047213,-0.197214,0.208877,1
0.518073,0.512983,12.547058,-0.287019,-0.236166,-0.349986,1
-0.577798,1.123863,10.345586,-0.753977,0.166049,-0.731781,1
0.045954,2.728526,8.758437,-0.251568,0.09384,0.004243,1
0.011526,3.641777,11.822116,-0.20404,0.512548,0.317797,1
0.521815,0.580493,9.848171,0.119601,0.208145,0.365957,1
-0.36524,2.53408,6.928043,0.289127,-0.057223,-0.014319,1
-0.578547,2.661615,12.357103,0.122347,0.885449,0.326681,1
0.30312,1.876348,11.135943,0.239994,-0.058686,-0.157906,1
0.271236,3.382516,7.469317,0.008837,-0.155672,0.162399,1
0.33201,0.768951,6.396349,-0.135618,-0.347128,-0.096679,1
0.148791,2.656975,7.687713,0.177271,0.133792,0.179774,1
-0.772094,3.555107,11.605666,0.298101,0.126638,0.2245,1
-0.426014,1.469794,8.263716,0.4133,0.096966,0.063059,1
0.235011,1.324895,11.236683,-0.182845,-0.129575,0.246048,1
1.861379,1.823358,9.588012,-0.098984,0.479873,-0.414145,1
-0.792751,1.975292,8.730894,0.002232,0.001292,-0.008935,1
0.18262,1.737287,6.699468,-0.12044,0.193733,-0.019728,1
-0.348775,0.962648,11.141032,-0.176789,0.502106,-0.338505,1
-0.65414,3.458708,9.551787,-0.103431,0.008777,0.073251,1
0.085472,0.672402,12.857962,0.121119,-0.051528,0.059848,1
0.247136,-0.091909,10.84854,0.052264,-0.094948,-0.115094,1
-0.04341,3.711083,10.848091,0.307562,-8.8e-05,0.158966,1
-0.044008,2.773433,6.572981,-0.431806,0.418086,-0.559948,1
0.629591,1.453028,5.529052,0.026084,-0.147706,-0.181358,1
0.811013,1.47159,7.812254,-0.3558,0.019281,0.337996,1
0.273332,3.017276,9.144933,-0.013991,0.074045,0.066935,1
-0.117206,3.254981,8.813073,0.152767,-0.042505,0.044246,1
0.030087,2.934198,6.555917,0.145454,-0.096956,-0.074565,1
-0.462688,0.964444,8.900491,0.312692,-0.102207,-0.064987,1
-0.061372,1.973795,7.151229,0.446342,-0.132996,-0.087229,1
0.227976,2.76984,6.975195,0.26185,-0.209531,0.048529,1
-0.610281,2.865641,10.662178,-0.317732,-0.517485,0.296783,1
-0.348475,3.032843,7.262448,0.230239,-0.352074,-0.18657,1
-0.165256,2.905009,6.967561,0.068564,0.129349,-0.246842,1
-0.539179,3.431464,8.653505,0.084527,0.25868,0.077729,1
-0.884511,1.77426,9.712702,-0.082553,-0.207609,-0.413979,1
-0.625998,2.604284,8.681197,0.048983,0.072531,0.409985,1
0.095202,1.520837,13.155094,-0.147748,0.187428,0.181109,1
0.862955,0.758173,13.82046,0.003535,0.119491,0.282496,1
-0.189057,2.518662,7.483837,0.092233,-0.035193,-0.267935,1
0.444126,1.867966,6.33318,0.233064,-0.116389,-0.21118,1
-0.041763,1.393752,12.10398,-0.051579,0.323875,-0.303121,1
-0.54831,1.7551,9.646989,0.479021,-0.358578,0.068104,1
-0.425116,2.430945,7.099137,-0.015369,0.071041,-0.160614,1
-0.540376,3.520379,7.269633,0.483246,-0.163839,0.337891,1
-0.758772,1.427132,10.325378,-0.069772,-0.354631,-0.16098,1
-0.501457,1.200953,8.32389,0.170348,-0.33226,-0.174957,1
-0.845442,3.615881,11.988121,-0.739151,-0.561014,-0.089882,1
-0.616268,1.160836,9.826466,0.003496,0.021743,-0.007185,1
0.263602,4.985682,9.748628,0.308421,-0.037008,0.300906,1
1.384621,2.082469,11.601175,-0.09178,-0.351506,-0.283172,1
0.229173,2.107318,7.051836,0.303652,-0.0412,-0.11372,1
-0.736019,1.815425,8.378826,-0.132485,-0.05562,-0.106169,1
1.039588,1.126857,7.02085,-0.009061,0.077845,0.114677,1
-0.781974,2.113754,7.538923,0.494048,0.018059,0.279517,1
-0.693358,2.217189,7.306157,0.360071,0.134144,-0.185527,1
-0.523761,1.907334,9.613459,0.099302,0.02266,0.277631,1
-0.343236,2.085314,11.671529,-0.148261,-0.109164,0.218115,1
0.137714,3.994144,9.955497,0.28888,0.466318,1.286944,1
0.118254,2.695445,6.362818,0.219675,0.237102,0.391587,1
0.194296,2.731969,12.437486,0.192092,-0.170348,0.087491,1
1.107547,2.932552,11.786041,0.631725,-0.606708,0.498439,1
0.713416,1.021326,10.124197,0.069843,0.037873,0.067655,1
1.183589,2.190994,8.043523,-0.300325,-0.007524,-0.065142,1
0.21181,1.263073,10.881023,-0.306779,0.065808,0.307148,1
0.028591,0.093256,12.191248,0.215078,0.189478,-0.16253,1
0.405507,0.815504,7.962392,0.020871,-0.067163,-0.184781,1
-0.157922,1.91856,6.540649,0.260967,0.187669,-0.177162,1
-0.497116,1.736539,9.653575,0.01892,0.008356,0.029334,0
-1.120869,1.522185,8.071815,0.008394,0.090241,0.290051,1
-0.548459,1.955234,7.783065,0.313478,0.114138,-0.201974,1
-0.192649,4.18829,9.585168,-0.095418,0.003593,-0.026361,1
-0.260458,3.204686,7.200776,-0.504108,0.331243,0.343827,1
0.769849,0.925525,5.955965,-0.319182,0.144681,0.297152,1
-0.581241,1.976939,8.378826,0.005566,0.001627,0.029891,0
0.747995,2.66416,11.864478,-0.19344,-0.14808,0.168343,1
0.176333,2.829117,11.392809,0.119239,0.08451,0.038918,1
0.075742,2.793641,7.143595,0.237169,-0.023343,-0.059734,1
-0.008981,3.074756,7.400311,0.405546,0.081069,0.233206,1
1.181643,1.888772,7.768246,0.528212,0.171338,0.166359,1
0.537532,2.486779,8.240813,0.205478,0.063534,-0.080426,1
-0.20178,2.349364,8.806038,-0.072737,0.091726,0.161976,1
1.152453,1.469344,8.148904,-0.070857,-0.468889,0.404599,1
0.179776,2.14489,7.192992,0.227341,-0.057283,0.116116,1
0.344733,1.198408,6.780151,0.290144,-0.058723,0.050963,1
-0.544867,1.093626,9.872121,0.016384,-0.26384,0.198206,0
-0.274679,1.02926,11.160492,0.26372,0.227427,-0.270206,1
-0.891247,1.24556,9.242979,-0.910819,-0.223182,0.266321,1
-0.094304,1.346151,14.600189,-0.421822,0.336444,0.13173,1
1.713936,-0.407303,6.831045,-0.102097,0.247683,-0.08549,1
0.095651,3.67381,10.748399,0.172094,0.029415,-0.129626,1
0.20687,2.501598,6.929241,0.077469,-0.039878,0.071683,1
0.885409,1.733545,8.786728,0.295916,0.104746,0.11109,1
0.107926,3.902984,9.938882,-0.001679,0.600007,0.100372,1
1.578767,2.68826,8.616831,0.069627,0.21269,-0.250005,1
0.452359,1.99565,7.531588,-0.033396,-0.038028,-0.106953,1
-0.205523,1.977089,8.26656,-0.523488,-0.20613,0.232277,1
0.505648,1.157094,7.12683,0.181429,-0.064911,0.131125,1
-0.279619,1.893562,10.557845,0.149036,-0.230615,0.169583,1
-0.981808,1.982477,6.788683,-0.189372,0.007744,-0.074109,1
-0.058229,2.927163,9.873169,0.194258,-0.011853,0.030707,1
0.140707,2.801574,7.859855,0.402695,-0.030181,0.113355,1
-1.232986,1.895658,10.860815,0.051455,0.234892,0.148393,1
0.697699,1.819167,9.740544,-0.116148,0.139977,0.254086,1
-0.816103,3.897595,11.094928,0.351246,0.018661,0.047108,1
-0.00494,2.757117,7.61706,-0.03885,-0.357418,-0.151407,1
-0.409698,3.432213,9.30525,-0.372548,0.008965,0.202008,1
0.532443,3.3662,9.82931,0.230524,0.059524,-0.130423,1
0.301473,0.173789,12.351864,0.116776,0.42178,-0.17702,1
0.068857,0.057031,13.150903,0.015348,-0.210766,0.052841,1
-0.404609,3.183879,8.426427,0.06866,0.074809,0.135864,1
1.318009,3.172952,11.6374,0.774217,0.599426,0.377973,1
0.435594,2.007176,7.969577,0.083794,-0.159622,0.022565,1
-0.309257,2.663112,7.320078,-0.270741,-0.090023,0.229317,1
-0.640518,1.931134,9.599538,0.025919,0.0226,0.014953,1
-0.255219,1.791175,7.048842,0.170422,-0.157892,0.25899,1
-0.340542,2.325863,6.948101,-0.235801,-0.154925,-0.115206,1
1.551673,0.161814,11.119776,0.223267,-0.004126,-0.323655,1
-1.324595,2.180216,9.186097,0.032394,-0.158797,0.140098,1
-0.905467,2.113006,10.353669,0.487296,-0.183915,-0.018958,1
0.263153,3.350932,9.523496,0.193632,0.587809,-0.135497,1
-0.477058,1.767674,9.764495,0.325462,-0.063499,-0.183354,1
0.021555,1.36561,7.858957,0.803721,0.243026,-0.025696,1
1.161734,2.266587,11.101664,-0.378442,-0.077133,-0.127968,1
0.462089,2.189048,6.555318,-0.287726,0.207824,-0.790234,1
0.335752,2.426754,6.675668,0.065425,-0.235745,0.137446,1
0.565374,0.735421,10.79091,-0.066598,-0.261506,-0.191222,1
0.494422,3.883225,10.248738,0.369395,-0.341331,0.105604,1
1.159639,0.930016,7.767946,0.150792,0.250964,-0.06101,1
0.819396,2.016606,7.346722,0.414293,-0.152912,-0.136521,1
-1.175206,0.898881,10.938204,0.136972,-0.185398,0.066452,1
0.140707,2.446662,6.910679,-0.409193,0.209466,-0.22596,1
-0.447719,2.372117,6.107749,0.174149,0.165896,0.440576,1
-0.019609,4.285588,11.102861,0.254087,0.073195,-0.042972,1
0.349972,0.828677,12.712913,-0.131592,-0.104142,0.120706,1
1.9235,1.268762,9.350007,-0.008362,-0.265667,0.077111,1
0.496517,3.02491,13.037289,-0.799497,-0.165836,-0.018283,1
0.6733,3.911217,11.373798,-0.272158,0.408133,-0.098215,1
0.684976,2.753823,10.024504,-0.100499,-0.340856,0.403227,1
1.626817,1.947151,7.781119,0.426213,0.183216,0.034601,1
-1.370251,3.37099,10.623109,-0.149771,-0.156696,0.204958,1
-0.465831,3.72216,7.040459,0.24036,0.303548,-0.08468,1
-0.306263,2.037713,9.44446,0.093626,-0.45425,-0.394796,1
2.098486,1.718576,12.128379,-0.219888,-0.402772,0.275808,1
0.505648,2.589914,11.673325,0.193747,0.18162,-0.059534,1
0.436642,1.033002,8.860375,0.040754,-0.057677,-0.330959,1
0.705932,2.889142,13.753849,0.274733,-0.182261,0.142689,1
0.634081,0.578098,7.972421,-0.061623,0.011542,0.139494,1
-1.089435,3.0776,12.002191,-0.057065,1.105735,0.365804,1
0.03353,3.831133,10.794054,-0.467387,-0.13593,0.143242,1
-0.490829,1.393153,9.325158,0.035084,0.105996,0.074186,1
0.515827,2.833158,7.513476,0.035936,-0.149417,0.131424,1
0.195044,2.193688,6.941365,0.11287,0.081205,-0.279514,1
-0.074096,2.639761,8.414602,0.811765,0.010003,0.543003,1
0.854573,0.321082,7.557933,0.168907,0.056175,0.173215,1
1.33702,1.460064,10.658885,-0.269227,-0.432104,0.079862,1
0.62525,3.312611,7.56437,0.257325,0.045253,0.141021,1
-0.778082,3.806884,11.264675,-0.818692,0.099779,-0.564582,1
-0.690514,2.060316,12.923076,0.265612,-0.099229,0.048045,1
1.705404,0.198038,8.592133,-0.050011,0.045462,0.069211,1
-0.319136,2.141297,7.776928,-0.070723,-0.254902,0.031752,1
1.519191,1.738634,10.428813,-0.542842,-0.03916,0.114873,1
-1.02432,1.595382,9.459429,-0.043803,0.067379,0.114089,1
-0.874182,1.82276,10.264754,-0.007515,0.005785,0.059991,1
1.617985,2.844385,10.859617,0.07466,0.306048,-0.080063,1
0.167951,1.786685,7.274872,-0.256157,0.045347,0.033358,1
0.033381,4.076623,11.751762,0.20781,0.373249,0.017626,1
0.267045,1.751508,6.542445,0.181389,0.113945,-0.367291,1
0.859662,1.623823,9.265732,0.227941,0.344189,-0.161909,1
-0.387544,2.730622,6.63121,0.456939,-0.152228,0.216755,1
1.252895,-0.079634,12.20457,-0.052873,-0.341438,-0.240684,1
-0.646506,0.57211,11.34401,0.516518,0.347134,0.61651,1
-0.146246,3.318449,6.975494,0.452376,0.09359,0.055262,1
1.183888,2.163451,9.316177,0.551309,0.686102,0.229677,1
0.936453,2.047742,7.764504,0.28709,-0.089111,-0.257882,1
-0.106129,2.373165,7.038364,-0.125157,0.133159,0.274392,1
-0.78407,3.019671,9.988429,0.103873,-0.223878,0.044769,1
-0.098046,3.295247,8.41056,0.013506,-0.211133,0.045038,1
-0.002395,2.394421,10.051448,0.14939,0.125496,-0.317916,1
-0.048499,1.372496,7.579788,0.055641,-0.013769,0.132543,1
-0.815055,1.893113,9.704769,-0.037122,-0.100889,0.364141,1
0.270637,1.578168,7.313042,-0.163028,-0.29336,-0.002544,1
-1.355282,3.098407,11.234438,0.120477,-0.110763,-0.068205,1
0.411644,2.230063,11.624527,-0.453375,-0.050948,-0.056227,1
1.008303,0.909209,7.691006,-0.629213,-0.280974,0.115797,1
-0.069306,2.839595,7.624545,-0.186018,-0.22293,-0.501544,1
-0.281115,0.940943,9.166339,0.295152,-0.162737,-0.022368,1
0.438588,2.028282,13.22904,0.108192,-0.168742,-0.049706,1
-0.429158,2.530338,7.617809,-0.074118,-0.091201,0.211516,1
0.228425,2.940785,7.244036,-0.619273,-0.62828,0.266658,1
-0.364043,2.656226,9.100475,0.321915,0.127099,0.139247,1
0.639321,4.195026,11.511063,0.097054,-0.102118,0.174593,1
-0.251178,2.354753,7.861203,-0.071782,0.05803,-0.49838,1
-0.524958,4.193829,11.010653,-0.005612,-0.221365,0.037708,1
0.045505,1.268462,6.168073,-0.888186,0.250807,0.315346,1
1.175506,1.623973,9.95924,-0.139059,0.575954,-0.291319,1
-0.594115,2.969375,8.519234,-0.174553,-0.29608,0.293742,1
-0.416733,2.588717,6.70366,-0.089414,-0.163109,-0.323567,1
0.786914,2.25072,9.063652,-0.191013,-0.00813,0.148171,1
0.275278,2.353705,7.746691,-0.204895,0.087701,0.317991,1
0.189955,2.25057,12.657678,0.534022,-0.125129,0.506291,1
1.910777,1.087938,9.868977,0.219744,-0.171715,-0.216248,1
-0.715662,5.716313,11.534863,0.225964,0.331369,0.296612,1
-0.493075,1.316363,10.957514,0.108565,0.348167,-0.056904,1
0.843496,1.527573,6.143075,0.313693,-0.180618,-0.301051,1
-0.115859,1.863774,7.421267,-0.042791,0.104012,0.59706,1
-0.58184,2.745141,8.859177,0.175829,0.385424,-0.2939,0
-0.06721,3.316204,11.597433,-0.335349,-0.270623,0.075272,1
0.49068,1.236728,7.946824,-0.023394,-0.035947,0.189763,1
-3.053949,0.458497,13.353132,0.051384,-0.032471,-0.005153,1
0.211211,1.77441,12.583882,0.3717,-0.062831,0.13179,1
0.331111,1.809737,12.67624,0.019266,-0.362796,-0.078737,1
-0.596659,1.372496,9.753268,0.207016,0.137874,-0.449363,1
0.077239,2.131867,5.815257,0.254151,0.046085,-0.195095,1
0.043709,1.790127,7.305109,-0.149496,0.134298,-0.269739,1
0.248184,1.763034,11.359129,-0.980083,0.036321,-0.354704,1
0.160466,2.38978,9.251212,0.35191,-0.014076,0.106529,1
0.315993,3.021467,7.356003,-0.056533,-0.348425,0.042551,1
-1.656605,1.006657,9.582473,0.508662,0.445698,0.376928,1
0.27423,1.143772,7.18416,0.085376,-0.113043,0.060097,1
-0.570164,0.58648,9.786499,0.296277,-0.114467,-0.400154,0
0.349224,4.002527,10.130334,0.50112,-0.094946,0.201445,1
0.478405,4.836592,10.144105,0.165432,-0.165763,0.032038,1
0.045206,2.999762,12.264147,-0.695385,-0.301541,-0.536385,1
-0.644111,3.316204,9.072035,-0.442642,-0.194919,-0.212374,1
-0.219294,2.210453,7.182514,-0.048636,-0.544011,0.129023,1
0.114212,1.152304,10.150242,-0.068137,-0.527832,0.293191,1
1.066832,1.457818,11.39191,-0.065418,-0.272966,0.19227,1
-0.126188,3.118166,6.891818,0.003701,0.000529,-0.133635,1
1.143322,1.126258,10.692116,0.400344,-0.147975,0.452404,1
0.127086,1.982777,7.34792,-0.044996,-0.127532,-1.269872,1
0.278122,2.08696,7.356602,-0.149794,-0.123879,-0.159464,1
-0.176034,2.150129,11.000624,-0.299317,-0.056307,0.218867,1
-1.13973,2.80816,9.06455,0.01368,0.191753,-0.059316,1
-0.008981,2.475103,10.816208,-0.171412,0.5058,-0.032276,1
0.683329,2.076332,6.668782,-0.360171,-0.040907,-0.375452,1
-0.987347,1.654509,9.912088,-0.019864,0.01803,0.040809,1
-0.135019,3.572471,12.579391,-0.306317,-0.114799,0.259255,1
-0.100441,0.624651,13.159435,0.330652,-0.150531,-0.020386,1
0.249381,2.26973,8.172705,-0.263936,-0.074656,-0.219915,1
-0.931513,3.367397,11.839629,0.160507,0.007915,0.046663,1
-0.093106,1.409619,6.712342,-0.12933,-0.302249,0.034288,1
-1.037792,3.998036,11.380235,0.291097,-0.161197,0.079689,1
1.021626,1.925296,13.704152,0.254918,-0.246775,-0.00129,1
1.236878,2.978955,11.156899,-0.092074,0.07706,0.061072,1
-0.373623,1.935924,7.65583,-1.158121,0.242165,-0.612412,1
0.228126,3.739823,9.777368,0.107247,-0.322824,-0.061911,1
-1.232238,2.549349,11.744727,0.269196,0.064336,-0.060602,1
-0.412093,2.360441,6.67462,-0.70563,0.222268,0.485826,1
-0.874182,1.82276,10.264754,-0.007515,0.005785,0.059991,1
-0.777334,1.160986,12.027638,0.112607,0.156628,-0.129982,1
-0.287552,2.168391,6.460565,-0.440597,0.064441,0.088586,1
0.387993,1.080303,12.290941,-0.159269,0.136358,-0.023798,1
0.359852,2.451901,12.095298,0.004988,0.299488,-0.00143,1
-0.656834,3.504063,11.58426,0.335056,0.024449,-0.025082,1
0.064067,2.083218,7.264543,-0.153571,-0.214762,-0.196817,1
-1.844764,4.499344,9.826765,-0.195075,-0.23646,-0.014648,1
-0.049248,2.970573,7.37172,0.312969,-0.171295,0.018521,1
0.789758,0.534688,8.446036,-0.457699,0.370649,0.379004,1
0.115111,0.63977,11.332035,0.169059,0.295931,0.127944,1
-0.402962,3.532953,7.970326,0.270319,-0.059238,0.246261,1
-0.618663,0.305066,11.613001,0.100463,-0.208526,0.066871,1
-0.857417,1.897005,9.712104,-0.445741,-0.254593,0.509496,1
0.223934,2.83241,6.665639,0.238184,0.072208,-0.167348,1
-0.331561,2.912044,6.534062,0.112647,-0.336267,-0.000181,1
0.243843,3.207231,9.370664,-0.283153,0.302138,0.09734,1
-0.312849,4.36163,10.52192,0.00865,0.052827,0.052553,1
-0.157622,0.977916,6.889423,0.083048,0.092583,-0.153782,1
-0.285007,2.494263,7.803872,0.337519,0.137893,-0.30194,1
-0.699795,1.575324,7.426507,0.291551,0.147469,-0.202611,1
0.044458,0.799188,9.777667,0.253137,0.040244,-0.069592,1
-0.359103,3.141218,11.381283,0.313108,0.544373,0.111206,1
-0.746498,1.762884,9.739946,0.094324,0.101556,0.410065,1
-0.441282,2.184707,10.234966,0.049587,-0.037583,-0.004017,0
0.106429,0.109572,14.316229,0.010099,-0.128302,-0.105249,1
-0.142953,3.434308,11.800112,-0.293991,-0.149065,-0.023672,1
0.384101,4.158652,12.022399,-0.056076,0.024802,-0.154258,1
-0.421823,1.137634,10.046358,0.261728,-0.10296,0.044604,1
-0.478555,0.496817,9.833202,-0.013499,0.027754,0.012593,0
-0.267045,1.75031,7.402257,-0.113338,0.213726,-0.019781,1
-1.738185,2.513872,8.310718,-0.381368,-0.134219,-0.169422,1
-1.182391,1.398991,9.203611,0.149569,-0.358292,0.40901,1
-0.136666,3.560496,6.88613,-0.23234,0.263132,-0.47897,1
0.301174,2.129771,8.418194,-0.044188,0.044281,-0.205382,1
-0.470172,0.896336,8.644524,-0.964469,-0.120946,0.527498,1
-0.283061,1.244961,11.351494,0.036411,-0.425331,-0.212731,1
-0.893342,3.556754,9.214389,-0.191317,-0.107212,0.092582,1
0.489332,3.379971,7.093299,0.005252,-0.185187,-0.251969,1
0.042212,1.10141,11.599529,0.012509,0.141147,0.213423,1
-1.54344,1.467698,9.815838,-0.005795,-0.002505,0.024556,1
-0.538281,1.496738,9.496103,-0.014384,-0.006928,-0.022916,0
0.355511,3.692521,11.308683,-0.284104,-0.004208,0.192058,1
1.19257,1.753304,9.065149,0.310742,-0.060727,0.101464,1
-0.251627,3.557652,7.777527,-0.085974,0.22629,-0.388554,1
0.432002,2.037713,13.560002,-0.554709,-0.556356,-0.552755,1
0.346829,0.376467,7.599547,-0.347667,0.221277,0.235122,1
0.153431,2.60653,8.69931,-0.066205,-0.200135,0.264941,1
2.783013,1.648223,14.768589,0.095845,0.549567,0.201463,1
0.033231,1.055904,10.872191,0.293563,-0.006142,0.057804,1
0.422422,0.451162,13.404176,0.34188,-0.39676,-0.199861,1
-1.073867,1.407373,8.383017,-0.047708,0.461002,0.351774,1
0.063019,0.633183,13.401332,0.177155,0.083067,-0.128331,1
0.289797,3.970793,10.65155,-0.316705,-0.19672,0.149418,1
0.863554,2.651436,12.016112,-0.007571,0.092995,0.027534,1
0.654439,2.074985,8.878038,0.179183,-0.088022,-0.129314,1
-0.789309,2.054328,9.465716,-0.383484,-0.244993,-0.092466,1
0.928819,1.712888,14.569203,-0.232447,-0.260686,0.390726,1
0.807122,0.759521,13.636044,0.020797,0.391804,0.854598,1
0.443827,1.310076,6.45847,0.364445,0.091735,0.129481,1
0.092657,3.321892,9.237291,0.255225,0.089935,0.288831,1
-1.03854,1.282383,8.482261,0.578601,-0.36409,0.306609,1
-0.160466,2.140249,7.390731,-0.081158,0.015299,-0.065885,1
-0.236358,2.309996,9.383836,-0.147634,0.145037,0.575909,1
0.361498,1.574426,14.461727,-0.550026,0.503604,-0.00256,1
0.47586,0.511337,8.828042,-0.383401,0.156179,-0.017005,1
-1.257236,2.774031,10.187964,0.19508,-0.237111,0.177216,1
0.450563,0.534389,8.918304,0.413481,-0.053568,0.054377,1
0.879721,2.337988,9.611662,-0.570027,-0.505156,0.317774,1
-1.497935,-0.541723,12.006532,0.054961,0.002569,0.018765,1
1.376088,1.324446,10.322834,-0.220359,-0.114363,0.290749,1
0.290396,3.50571,9.943971,0.043082,0.095006,0.024713,1
0.53394,1.693878,6.488856,-0.070507,-0.007563,0.201808,1
1.13494,1.381477,8.374485,0.27716,-0.791616,-0.562393,1
-0.83182,2.044898,7.313941,-0.269733,-0.175229,-0.137472,1
0.024998,1.446442,7.12653,-0.138943,-0.064328,0.250365,1
-0.930764,2.981051,9.433683,0.221393,0.296765,-0.008892,1
0.038171,3.623515,10.945389,0.313246,0.054157,0.198312,1
-0.430355,2.844535,8.586145,0.44877,-0.139296,-0.077001,1
0.410446,0.129331,11.593092,0.045815,0.082547,0.114178,1
0.248932,2.226769,9.16574,-0.920576,-0.210501,0.337105,1
-0.505349,2.090852,6.937773,0.340692,-0.235963,0.125591,1
-0.770897,3.066673,8.969648,-0.111671,0.501114,-0.316874,1
0.640069,2.069596,9.347162,-0.016055,-0.002617,-0.086118,1
0.849334,-0.005089,7.313941,-0.148366,-0.133057,0.438475,1
0.723296,0.885109,12.002491,0.348471,0.184914,-0.075614,1
-0.722398,3.28447,8.529413,-0.622871,0.070561,0.045227,1
1.008603,2.682721,11.757151,0.338897,-0.092303,-0.115273,1
-0.230221,1.974544,9.558673,-0.565258,-0.038311,0.308038,1
1.735341,1.21667,9.524993,-0.334459,0.407952,-0.044927,1
-1.576522,2.480641,9.316027,-0.435774,-0.246651,0.449387,1
0.207169,1.747616,6.685098,0.024374,0.008045,0.070233,1
0.818498,1.21188,6.913523,0.164137,0.233353,-0.250683,1
-0.259261,3.685037,10.451117,0.280383,-0.085842,0.193168,1
0.175435,2.237996,13.710888,0.33325,0.007887,0.093341,1
-0.186063,1.202449,9.820927,0.043163,-0.350945,-0.007316,1
-0.684377,1.013542,9.861643,0.247116,-0.401733,-0.613295,1
-0.17334,0.461341,6.72282,-0.038654,0.235003,0.145056,1
0.00958,4.468059,11.884237,0.043463,-0.102041,-0.078203,1
1.196612,0.866398,12.088861,-0.211406,0.093584,-0.082255,1
0.440235,1.427432,11.10825,-0.890621,0.177073,0.514714,1
-1.037343,0.833317,10.924283,0.082616,-0.395735,0.06897,1
1.438509,1.046025,9.902957,-0.211543,0.256905,-0.582584,1
-0.503403,2.669549,6.598279,0.340636,0.016009,0.076613,1
0.092657,3.129991,8.550669,-0.166882,0.048583,0.097032,1
0.3606,2.53423,8.298443,-0.075689,0.126708,-0.198131,1
0.832569,1.748065,11.970457,0.056689,0.222262,0.424386,1
1.913471,1.710792,12.851824,-0.075235,-0.030421,-0.199038,1
-0.424817,2.871928,11.862083,0.262289,0.679773,0.290271,1
-0.219593,1.661545,8.078102,0.090033,0.291712,-0.074822,1
-0.302371,2.627037,8.678054,0.13617,-0.150444,-0.077298,1
-0.402663,1.702709,7.974966,0.431914,0.030095,0.083854,1
-0.460443,3.451972,11.855646,-0.108488,-0.293372,-1.0006,1
-0.342937,1.753154,14.617553,-0.476334,0.689269,0.020232,1
0.339494,0.659229,9.614057,0.351853,0.024051,-0.18237,1
-0.421973,2.732268,6.653364,0.082943,-0.058299,0.417148,1
-0.019609,3.395689,7.52081,0.052391,0.112344,0.04444,1
-1.141227,0.878972,10.64661,0.100679,0.261508,0.030895,1
0.030087,3.581752,8.705148,0.061646,0.319363,0.154241,1
0.004191,1.759441,6.659951,0.178441,0.063595,0.114477,1
0.910856,1.035098,12.725787,-0.03172,0.122695,0.237411,1
-0.920286,1.897005,8.904832,-0.149219,0.026559,-0.09707,1
0.648751,4.644542,10.628648,0.070086,-0.014629,0.244454,1
0.298928,1.713187,10.775492,0.282489,-0.03596,0.069925,1
-0.893043,2.592609,6.784641,0.069903,-0.233359,-0.004425,1
-0.514031,4.389921,7.70373,0.018894,-0.167062,-0.299985,1
0.388891,3.205285,6.285579,0.114518,0.090457,-0.090666,1
0.162412,3.508704,11.567196,0.224924,-0.060896,0.167546,1
0.206271,1.75989,8.668773,0.190103,-0.269658,0.140193,1
2.302213,1.667981,12.353511,0.354182,-0.156421,-0.205627,1
0.046404,2.322271,7.409741,0.156862,-0.29092,0.298512,1
0.348176,0.789608,12.056528,-0.479569,-0.510653,-0.111429,1
0.275727,1.293011,6.602021,-0.078764,0.043408,-0.183648,1
0.060923,3.238665,13.905783,-0.019303,-0.208094,-0.093468,1
-0.61073,2.990182,8.370294,0.475972,0.905543,-0.111306,1
0.477208,0.518971,7.798633,0.012079,-0.048495,0.530399,1
0.060025,0.964594,7.863448,0.175627,1.000584,0.500056,1
0.437989,3.936813,8.664432,0.076423,0.559151,-0.463362,1
0.297731,0.752036,10.098001,0.18745,-0.021592,-0.009484,1
-0.23561,2.603686,7.573651,0.214921,-0.226624,-0.023576,1
-0.763562,0.848286,12.317885,-0.102461,0.194522,0.064055,1
0.127984,2.219135,7.688462,0.506401,-0.223039,0.252532,1
-0.071851,4.784201,7.629035,0.445972,-0.481171,0.14908,1
-0.271535,3.698958,12.279714,0.40917,-0.005722,0.155476,1
-0.563428,1.30319,9.712702,0.37203,-0.307674,-0.077854,1
0.367785,1.93817,11.795322,0.010572,-0.422613,-0.161824,1
-0.919238,1.859134,9.544602,0.025402,-0.218405,0.094099,1
-1.320404,1.989064,8.225395,-0.327452,-0.017043,0.098069,1
1.175056,1.563948,9.339977,0.308871,0.070512,0.032365,1
-0.881667,3.612139,9.719139,-0.313836,0.084537,-0.196195,1
-0.248932,2.594255,6.374494,0.139091,-0.005585,0.291939,1
0.067659,1.905986,7.611971,-0.016112,0.160883,-0.072689,1
0.730032,0.999621,9.942325,-0.6234,0.01633,-0.466826,1
-0.368085,2.560276,8.032746,-0.290854,-0.021791,0.336198,1
-0.696053,0.909209,9.814042,-0.057585,-0.10124,-0.039103,1
0.88017,2.73646,12.171489,0.730586,-0.681268,0.731137,1
0.416284,1.618884,6.151907,0.02986,0.286341,0.114398,1
-0.10598,1.272055,7.490124,0.001442,0.106185,-0.265228,1
0.113314,2.81804,13.429324,-0.468261,-0.26352,0.11051,1
-0.755928,2.012116,7.483688,0.202299,0.022449,0.115671,1
1.118175,1.251547,7.875124,0.14029,-0.14407,0.203766,1
-0.802032,2.882256,7.905211,-0.014625,0.165587,0.018087,1
0.797092,3.294948,12.659175,-0.504033,-0.56197,-0.197717,1
1.302142,-1.802252,13.783936,-0.018387,-0.015527,0.255191,1
-0.525407,3.638184,8.581205,-0.123558,0.00138,-0.136102,1
-0.612975,3.626209,7.338789,0.113504,0.04843,-0.310529,1
0.962648,0.934806,6.862479,-0.286054,0.057707,0.026949,1
-0.29803,3.672912,11.556119,-0.330283,0.004322,-0.411896,1
0.146845,2.963238,9.269923,-0.160937,-0.129062,0.310822,1
-1.197659,2.270479,11.414813,-0.42302,0.145453,0.088131,1
1.477727,1.637445,13.952486,0.557495,0.140357,0.441043,1
-0.167352,2.617906,7.081773,0.063229,0.105047,0.188487,1
-0.223635,2.883903,8.834778,0.170487,-0.136512,-0.046804,1
-0.246687,2.49082,8.41086,-0.078072,0.055718,0.458922,1
0.155377,1.322051,7.475904,0.09282,0.068575,-0.214087,1
-0.167202,1.678609,12.822336,-0.075837,-0.231985,-0.645631,1
0.275427,3.723357,8.398136,0.289776,-0.28009,-0.02713,1
-0.085622,1.916016,7.927515,-0.350261,-0.299449,0.092476,1
-0.574505,3.056494,6.937623,-0.022169,0.198327,-0.107672,1
0.247286,2.908302,11.701467,0.380565,0.236685,-0.180224,1
0.030686,2.156116,7.563172,0.523618,-0.349814,0.244515,1
-0.358055,2.126328,7.076983,0.201821,-0.201168,-0.458383,1
-0.100591,1.963467,6.853348,0.255531,-0.373858,0.169764,1
0.260159,3.24585,10.066417,-0.993566,-0.200965,-0.670203,1
0.55789,3.506758,7.643256,0.193212,0.001219,0.243566,1
0.041164,2.199376,7.372169,0.382615,-0.71875,0.093242,1
1.326691,0.553848,7.854916,0.068723,-0.236166,-0.03777,1
0.756377,2.305206,12.518917,-0.194534,-0.499771,-0.068675,1
0.170645,3.247646,7.803572,-0.186928,-0.293242,-0.13485,1
0.911305,0.991239,10.067914,0.170056,0.020578,0.135699,1
-0.202828,2.759062,11.089539,-0.115768,0.33956,-0.208003,1
0.010329,0.867446,9.989028,-0.085188,0.043805,-0.27169,1
0.213157,0.809367,11.195668,0.354497,-0.043514,-0.242536,1
-0.279768,2.346071,5.862409,0.170251,-0.254387,0.234537,1
0.05748,0.97597,8.207433,-0.271205,0.352946,0.000173,1
1.038091,0.045805,10.249037,0.079042,0.336819,0.089701,1
0.08667,2.482587,6.94855,-0.482191,-0.025846,-0.019566,1
-0.026345,4.072282,7.677984,-1.05178,-0.178313,-0.621476,1
0.561033,1.368155,12.958253,-0.177151,-0.067794,-0.130467,1
0.273182,2.271975,7.100634,0.245779,-0.004261,0.119363,1
-0.285307,2.819986,6.788982,0.074071,-0.260929,-0.019555,1
-0.673899,2.307901,13.291311,0.321612,-0.283133,0.155737,1
1.200054,1.584754,10.608739,-0.044512,-0.316896,-0.082571,1
-0.459395,1.873803,10.265054,0.012462,0.429797,0.135341,1
0.206121,2.926864,7.658374,-1.124063,-0.242118,-0.28861,1
0.863554,2.358645,8.407716,0.230877,-0.163064,-0.067011,1
-0.002844,2.547403,8.584798,-0.135037,-0.306864,-0.235374,1
0.944236,0.387843,14.256354,-0.267925,-0.461903,0.336771,1
0.642165,2.740651,8.149054,-0.457039,0.104109,-0.238235,1
-0.385149,1.91886,7.552095,-0.029308,0.08433,-0.237615,1
-0.246088,2.287842,10.414443,0.055803,0.090993,-0.228395,1
1.316812,0.784219,6.487809,-0.072836,-0.044189,-0.003485,1
0.193997,2.932851,7.66047,-0.298878,-0.346403,0.169514,1
0.406854,0.482896,8.275092,-0.132598,-0.435151,-0.109957,1
-0.621059,2.044299,12.96948,-0.158214,-0.0988,-0.349332,1
0.946482,3.281177,12.614568,0.756561,1.091965,0.32439,1
-0.059426,3.126698,11.58905,0.177446,0.176876,-0.183416,1
-0.720302,3.085234,7.278464,0.013633,-0.092202,-0.057341,1
-1.004561,1.688788,9.269025,-0.354857,-0.173292,0.128311,1
-0.867895,0.881966,11.371403,-0.962768,-0.031257,-0.638635,1
-0.654439,3.219505,10.520123,0.160981,0.017201,-0.285948,1
1.462159,1.630709,9.976304,0.139254,0.190655,0.311919,1
0.448617,0.953218,11.680211,-0.080867,0.11063,0.339507,1
0.293839,2.963238,6.806346,0.106812,-0.040834,0.29649,1
0.669558,2.326761,7.108268,0.158229,0.03076,-0.266147,1
-0.733475,3.829936,11.115435,0.843077,-0.195784,-0.645583,1
0.998573,0.871338,7.689659,-0.017079,-0.243631,0.157411,1
-0.689766,1.302142,9.692345,0.215045,0.09997,-0.069226,1
-0.095052,3.771856,10.19949,0.044344,-0.380307,-0.018969,1
-0.245789,-0.054337,10.718161,0.2611,0.013114,-0.015041,1
1.145119,1.006058,7.098539,0.141013,-0.161735,0.011095,1
0.047152,1.710194,8.055349,0.511272,0.453336,0.073535,1
0.086221,0.233664,12.049792,0.015766,0.080795,-0.054746,1
-1.187181,2.135459,12.427307,-0.286831,0.580928,0.302652,1
-0.135618,2.063908,8.046218,0.422469,-0.760233,-0.217988,1
-1.426983,4.095483,10.638826,0.374989,0.051896,0.239494,1
-0.584385,2.627636,11.253299,-0.479742,0.139224,-0.160719,1
1.105451,1.573079,6.291716,0.18843,0.191653,0.221765,1
1.141526,2.272724,9.203012,-0.170425,-0.588019,0.14627,1
0.924478,1.364413,13.042229,0.171409,-0.111149,-0.01458,1
-0.29833,2.520309,11.253149,0.131134,-0.046379,0.169413,1
1.262774,1.661096,7.687264,0.107933,0.058734,0.031774,1
0.323028,2.03876,6.484665,0.233688,-0.009435,0.034471,1
-0.305215,2.672692,8.104447,0.637947,-0.223138,0.145485,1
0.313748,1.86078,11.167228,0.083873,-0.008057,0.201669,1
0.765358,2.17378,7.976014,-0.491806,0.142784,0.163459,1
0.214803,0.738115,6.090535,0.043526,0.162493,-0.276092,1
2.153721,1.660946,10.539283,-0.150521,-0.298363,0.191469,1
0.698897,1.552721,12.052487,0.070848,0.003492,0.078713,1
-0.367037,3.146906,8.542286,0.118472,0.200346,-0.238742,1
0.299976,1.91886,13.317955,0.112776,0.254067,-0.049263,1
0.126786,2.840343,7.996222,0.130063,0.202847,-0.17119,1
0.611927,3.612288,8.413105,0.279383,0.314289,-0.661922,1
-0.287851,1.037942,9.327853,0.185563,-0.229045,0.114137,1
-0.589324,1.141826,9.843979,-0.405293,0.652451,0.275464,1
0.441582,1.456771,7.284153,-0.530227,-0.244034,0.51179,1
-0.862806,2.054627,11.360027,0.606885,0.795542,-0.650604,1
-0.20208,2.66416,6.468199,-0.075696,-0.135418,-0.049271,1
-0.487985,1.701512,9.617201,-0.6099,-0.07575,0.038954,1
1.164279,1.131647,5.863307,0.495323,-0.228577,0.127222,1
-0.23067,2.694547,8.768765,-0.195445,0.312348,-0.081331,1
-0.535886,0.880319,9.878857,0.011538,-0.007643,-0.027891,1
-0.717907,1.941163,9.982441,-0.341903,0.428837,-0.019295,1
-0.941542,1.616039,9.457333,0.038348,-0.052242,0.370415,1
-0.285456,2.677931,11.508668,0.042048,0.107345,-0.391205,1
-0.285606,2.449656,6.433921,-0.066361,-0.062328,-0.258479,1
0.388891,2.211651,12.582235,-0.000397,0.660222,-0.145039,1
-0.020807,3.24136,9.254355,0.063805,0.034536,0.025099,1
1.134191,2.356999,11.084899,-0.162465,-0.165683,-0.062456,1
-0.881367,1.585802,9.040151,0.041782,-0.143362,-0.182754,1
-0.246687,1.498833,6.631061,0.221439,0.177524,-0.088767,1
-0.141606,3.762127,7.843539,0.082188,-0.285058,-0.1941,1
0.130978,2.750231,8.53555,0.100634,0.031021,-0.169788,1
-1.035247,3.414699,12.038566,0.280396,0.050683,0.048642,1
0.100741,2.744692,8.937015,0.015794,-0.118556,0.023214,1
1.598526,1.161884,8.591534,-0.024524,-0.064881,-0.078928,1
-0.109422,4.132307,8.139773,-0.150397,-0.2542,-0.014548,1
0.103136,2.099833,7.423812,0.055792,0.023294,-0.169285,1
-0.09146,1.884132,8.075257,-0.083499,0.127392,-0.14112,1
-0.571062,3.914659,9.822574,-0.044147,-0.08005,-0.109509,1
-0.845143,2.866389,11.648477,-0.09624,-0.044075,0.010492,1
0.237855,0.582289,9.559271,0.209154,0.143677,0.336386,1
-0.667163,2.434088,11.271261,0.191364,-0.078731,-0.196858,1
0.276625,3.032244,13.703404,-0.621784,-0.641841,0.268034,1
0.218396,1.743275,9.603579,0.269867,-0.457829,-0.463612,1
0.194745,3.171006,8.686736,-0.169218,-0.165051,-0.634342,1
0.513732,2.449955,6.303542,0.268321,-0.086543,0.104122,1
-0.349224,3.109633,13.309124,-0.506288,0.068298,-0.160267,1
0.693658,1.915866,8.967103,-0.694926,0.058097,0.479743,1
-0.204475,3.442841,12.060121,0.327149,-0.101045,0.043709,1
0.323028,2.068997,11.684851,-0.374934,0.146168,-0.099747,1
-0.008981,2.276017,6.364914,-0.253215,0.304069,0.115947,1
-0.467328,1.19257,11.712394,-1.059959,0.019424,-0.452786,1
-0.142653,3.104245,7.194938,0.14947,-0.198296,0.050918,1
0.414189,1.177601,6.407426,0.078632,-0.220089,0.047321,1
-0.005089,3.035089,7.851173,0.217298,0.241351,-0.136431,1
-0.353714,1.747915,7.026688,-0.190613,0.323073,-0.502779,1
0.225132,1.650318,9.136401,-0.49221,-0.493202,0.197066,1
-0.118553,4.49141,9.874067,-0.149979,-0.143,0.401097,1
-0.731828,2.738705,11.519745,0.017586,-0.069717,-0.11784,1
-0.536484,2.859354,7.440877,-0.155057,-0.071663,0.146438,1
-0.136217,2.509232,8.085137,-0.99811,0.097772,0.539436,1
-0.257315,2.759362,6.526129,0.032555,-0.043602,0.21861,1
-1.680256,0.537083,12.035572,0.107989,-0.239339,0.51686,1
-0.245939,2.225572,7.250473,-0.052222,0.017325,0.08902,1
-0.045655,2.761607,6.587651,0.509172,0.319205,-0.34321,1
0.446821,2.074686,6.466403,-0.017365,-0.049113,-0.169236,1
0.098795,3.191513,6.442902,0.33629,0.078114,0.118858,1
0.175735,3.153193,12.727583,-0.355355,0.260296,0.055891,1
-0.90397,2.58707,7.28071,0.280501,-0.217518,0.15901,1
-0.4329,2.388583,12.654834,0.044541,0.210397,0.404822,1
-1.291514,1.550625,10.713371,0.181707,-0.156828,0.096258,1
0.396974,2.195035,6.520441,0.341239,-0.259404,0.069745,1
-0.299827,1.847309,7.463629,0.427445,-0.023551,-0.052113,1
-0.077389,1.514251,11.950249,0.031188,-0.065246,0.117643,1
0.626747,1.11084,10.970686,0.196015,0.138546,0.108949,1
-0.578846,4.393065,11.009755,0.456951,0.550258,0.258948,1
-0.12978,3.677852,11.343112,0.125222,0.147197,-0.096821,1
-0.571362,2.956951,11.40658,0.121978,0.226637,-0.124819,1
-0.982856,3.328029,11.530672,0.234096,0.089853,0.086713,1
1.964814,0.643811,8.023764,-0.270515,-0.373458,-0.422002,1
1.21203,2.607128,11.680061,-0.271474,0.077698,-0.112561,1
0.671354,2.008673,7.42965,0.124535,-0.00356,-0.987207,1
-0.720152,1.128354,11.999198,0.165301,0.10946,0.089531,1
-0.305515,2.686463,9.06006,-0.025678,0.046058,0.108095,1
-0.885109,0.814456,10.158026,0.274658,-0.051124,-0.138118,1
-0.2645,-0.090711,9.082213,0.557072,0.136814,0.387812,1
0.050595,2.479594,7.700886,0.308971,-0.097125,0.08549,1
-0.736918,3.498674,11.799662,-0.430246,-0.686236,0.156992,1
0.618963,1.930535,10.308913,0.06018,0.178717,-0.467253,1
-1.464854,1.906436,10.055789,-0.482123,-0.170472,0.293122,1
-0.908161,1.823508,9.731413,-0.36129,0.518572,-0.098994,1
-0.366887,2.691852,8.842711,-0.164221,-0.100631,0.029191,1
-0.270038,1.6831,7.371571,-0.147156,-0.183658,0.150632,1
-0.748144,1.931583,9.749526,-0.62781,0.140282,0.653586,1
0.280816,2.472109,7.499405,0.659945,0.626043,0.324344,1
0.503403,1.257236,11.758797,-0.138586,-0.297717,-0.075173,1
0.661924,1.791175,7.657776,0.363651,-0.12144,-0.00123,1
-0.464185,2.708019,7.073091,0.311988,0.372794,-0.370864,1
-1.181792,0.01422,10.621163,0.210405,0.016055,-0.030587,1
-0.640069,1.751807,9.410032,0.295093,0.009987,-0.076296,1
0.775088,0.97148,12.327914,0.059051,-0.343832,-0.108679,1
-0.93795,0.76476,11.228301,0.161463,0.236919,0.142104,1
0.494721,1.205743,12.788356,-0.075683,0.248657,0.023795,1
-0.360001,2.857109,8.537197,0.174602,-0.02231,-0.428568,1
0.335901,2.140249,11.925102,-0.177963,0.379912,0.209884,1
0.173789,2.152374,7.098089,-0.96905,0.079081,-0.07579,1
1.045127,0.583487,7.93455,0.42042,0.072656,-0.038229,1
-1.592538,2.349963,10.455607,-0.306932,0.228632,0.489324,1
0.753234,3.249892,8.433612,-0.405916,0.703609,-0.28187,1
0.319136,3.348387,11.043734,-5.6e-05,-0.245575,0.255189,1
-0.593516,3.868406,13.014386,-0.114135,0.050465,-0.211796,1
-0.994083,1.910777,9.393865,-0.192651,0.20228,-0.092522,1
-0.429457,1.818568,6.776259,-0.538995,-0.076838,-0.159011,1
1.709445,1.560505,9.909393,-0.314767,0.217044,-0.579194,1
-0.357457,2.474953,11.514206,-0.155361,0.082334,0.223549,1
0.084125,1.70211,9.012159,-0.040215,0.06539,-0.152565,1
-0.053439,1.371149,7.345226,-0.083484,0.080015,-0.032195,1
-0.368983,2.258653,8.943153,-0.178521,0.055227,-0.378712,1
0.151635,1.519939,12.742252,-0.144723,-0.410991,-0.098174,1
-0.650098,2.307302,8.878038,-0.126992,0.220904,-0.472419,1
0.301473,1.395997,10.035581,0.028245,-0.317679,0.251772,1
0.104782,1.083297,8.627309,0.328735,0.497202,0.000889,1
1.384621,2.548301,7.361991,-0.172592,0.084361,-0.095062,1
2.052083,0.772843,10.768307,-1.040125,0.246495,-0.556803,1
-0.13936,2.696343,7.113956,-0.156515,-0.006239,-0.569736,1
-0.146845,1.866319,7.921228,0.276639,-0.081267,0.115986,1
-0.309407,3.942052,10.766062,0.024732,-0.148271,0.035868,1
-0.508942,1.696123,7.496561,0.18696,0.189598,0.006188,1
0.516875,0.249232,8.76158,-0.269483,0.076914,-0.04061,1
1.520388,1.280288,7.636969,0.12164,0.522923,-0.06984,1
0.348775,1.15904,10.743459,0.073513,-0.24458,0.404056,1
0.065414,0.584385,8.827743,-0.491059,-0.270985,-0.210789,1
0.708327,2.301015,7.949968,0.030316,0.19783,0.083955,1
-0.336949,2.261198,7.016509,-0.258771,0.124487,-0.49574,1
-0.671803,3.175946,11.78185,0.023427,-0.108012,0.201792,1
-0.369282,3.334167,8.600216,0.055618,0.255074,0.010304,1
-0.517474,2.42376,9.875115,0.117175,0.477021,-0.018658,1
-0.599054,2.220932,7.760312,0.033501,-0.038458,0.019486,1
-0.24998,3.579207,7.39118,-0.36155,0.079361,-0.344227,1
0.321531,4.208498,11.601624,0.033829,-0.005191,0.238661,1
-1.083447,3.37563,11.20959,-0.560439,-0.277856,0.353494,1
-0.151485,1.576522,7.478299,0.591358,0.682607,0.08972,1
0.152233,3.724106,9.958342,0.451667,0.04792,-0.018237,1
-0.237107,2.835553,10.024803,0.042209,-0.24733,0.250168,1
1.517395,1.720522,8.380622,-0.813715,-0.212094,0.073824,1
-1.671724,3.720214,11.747122,-0.863432,-0.590571,-0.115833,1
1.732048,2.186353,10.720257,-0.009893,0.174632,0.120126,1
0.31255,0.324825,8.513696,-0.257741,0.335691,0.047395,1
-0.611628,0.891247,10.433004,-0.085246,-0.036415,0.027382,1
0.002545,2.271526,7.220235,-0.084302,0.299643,0.115609,1
-0.515827,2.330354,8.937764,-0.01931,0.233606,0.090083,1
0.393532,1.425635,6.359226,-0.961845,-0.270755,-0.371598,1
0.589624,1.43297,8.502619,0.430855,-0.135299,-0.086379,1
-0.252675,3.259472,6.132897,0.172379,0.020938,0.092317,1
-0.385598,4.122128,9.884096,-0.398268,-0.305958,0.069342,1
-0.271984,1.964964,8.870404,0.032834,-0.019924,-0.019374,1
1.274599,1.744472,8.794512,9.5e-05,-0.158736,-0.176343,1
-0.740809,1.485062,8.077802,-0.162683,0.096979,-0.582087,1
-1.11548,2.427053,10.070309,0.47932,0.144145,0.190522,1
-0.021705,3.641777,7.753576,-0.008517,-0.128099,-0.433262,1
0.117805,2.4046,7.975714,-0.115458,-0.172091,0.050024,1
0.328417,2.098336,9.878408,0.144763,-0.630713,0.122787,1
-1.180445,1.364562,9.059012,0.795861,0.35019,0.360622,1
-0.554148,1.15889,9.785451,-0.130121,0.004382,-0.606186,0
-0.121248,2.908302,6.219566,-0.164899,-0.033284,-0.004153,1
0.017364,3.511997,7.254215,0.082612,-0.072496,0.135465,1
0.583187,2.67838,6.635102,-0.070896,-0.141152,0.097671,1
0.174836,3.586991,6.374494,-0.061167,-0.108668,0.093146,1
-0.282163,2.102977,7.473359,0.335651,0.085278,0.110897,1
-0.776435,2.496508,9.480385,-0.000611,0.034884,-0.179549,1
0.829425,4.302503,9.340876,0.105934,0.773732,0.16126,1
0.079634,2.496508,12.444671,0.203518,0.004689,-0.006789,1
0.159718,2.554737,6.524931,0.144004,0.061799,0.098436,1
0.750988,1.998344,7.539971,-0.082902,-0.04766,-0.171651,1
0.162562,3.678151,8.398735,0.552046,-0.209425,0.169969,1
-0.459694,1.12521,9.704469,0.113584,-0.090515,0.113567,0
1.638642,1.709445,12.788806,-0.203642,0.007634,0.25265,1
0.053589,3.541485,10.845247,0.084993,0.270514,0.158491,1
0.262255,0.766406,9.500144,-0.132523,-0.019702,-0.111187,1
-0.423918,3.321144,9.338331,0.075939,0.125948,-0.237155,1
-0.244142,2.392625,9.721384,-0.087816,-0.082633,0.054593,1
0.590672,3.469934,10.037677,-0.58664,-0.157096,0.17123,1
0.30761,3.060087,13.396093,0.560918,-0.120967,0.428649,1
0.290546,1.725013,8.102201,0.207742,0.202731,-0.116933,1
-1.120869,2.968627,10.070009,0.899816,0.225824,0.34156,1
-0.220791,3.510799,9.824071,0.310647,-0.094457,-0.013916,1
0.835263,1.231639,11.471245,0.182664,-0.103743,-0.063217,1
-0.053888,3.1017,6.051915,-0.018169,-0.078967,-0.16812,1
-0.833167,3.133434,11.735745,-0.033197,-0.154443,0.349805,1
0.240699,1.993854,12.900623,-0.804063,-0.280203,-0.08198,1
-0.006886,2.323169,12.142749,-0.117221,0.018701,0.156364,1
0.333956,2.971471,8.704848,-0.001524,0.046946,0.037748,1
-0.090711,2.353705,6.810837,0.106014,0.18383,-0.242496,1
0.715961,1.411565,9.399404,0.087077,0.265631,0.051052,1
0.032033,3.158133,6.15999,0.201499,0.222068,-0.2998,1
-0.022603,0.761467,10.070309,0.021336,0.003703,-0.013694,1
-0.631836,1.773063,9.642798,-0.003623,0.05993,0.356268,1
0.835113,1.667981,8.33377,-0.431574,-0.53233,0.130064,1
-1.613046,2.083068,9.426797,0.237765,0.139471,0.059233,1
0.373922,0.929417,10.412647,0.353452,-0.214641,0.130094,1
-1.94296,1.420396,12.188703,0.10553,-0.193322,-0.510098,1
0.364193,0.980162,11.681857,-0.337882,0.545651,0.699585,1
-0.948577,2.608476,12.468172,-0.040383,-0.108505,0.271029,1
-0.382155,2.115102,7.119794,-0.286457,-0.234855,-0.117507,1
0.308808,1.659749,6.892717,0.297237,-0.159848,-0.131983,1
-0.031435,2.662064,7.627988,0.005234,0.151656,0.308955,1
0.034279,3.237917,9.574689,0.008459,-0.011332,-0.104407,1
-0.070054,2.292782,13.852045,0.793075,-0.452228,0.170322,1
-0.641416,2.206711,7.793394,-0.919466,-0.454807,-0.499806,1
-0.520168,0.708028,8.05969,0.000613,0.004371,0.045346,0
0.188159,2.52001,7.779473,-0.458944,-0.235036,-0.123774,1
0.060325,1.032553,7.58368,0.184412,-0.232398,0.039996,1
1.444496,1.937421,7.745942,-0.799191,-0.380878,-0.398318,1
-0.702789,0.9616,12.50754,-0.181132,0.254056,-0.004166,1
0.41823,1.064586,12.578942,-0.088637,0.145603,0.281312,1
-0.167502,2.046095,6.363567,-0.01328,-0.153185,-0.352288,1
-0.664019,1.418151,13.687537,0.19453,0.077759,-0.462371,1
0.611778,1.028362,12.912598,-0.013016,-0.119841,-0.002951,1
-0.619262,0.512534,10.412796,-0.165211,-0.147284,-1.083783,1
0.996927,2.321822,8.027058,0.052393,-0.001986,0.139788,1
1.066832,2.833158,12.639716,0.130647,0.097147,-0.168477,1
-0.632734,1.157393,11.367212,0.002558,-0.150476,-0.176616,1
0.72614,3.521876,10.75738,-0.561589,0.307768,-0.4555,1
0.333357,0.314795,12.790751,-0.079557,-0.195756,-0.235761,1
-0.175435,2.139202,10.161469,-0.763533,-0.279646,-0.248743,1
-0.800984,4.04908,8.999136,0.153203,-0.183228,0.157917,1
0.612227,2.328109,13.691578,0.801199,-0.27572,0.085342,1
0.162263,2.540816,8.054151,-0.22411,0.21656,-0.436969,1
0.31719,2.699935,6.2754,0.041699,0.303655,0.344158,1
-0.794847,1.095721,9.563313,-0.17456,0.151908,-0.375906,1
2.576592,1.596281,9.378148,0.125342,0.188875,-0.48231,1
-0.633183,2.99108,11.776461,-0.281236,-0.123091,0.413651,1
-0.917891,1.727707,9.595346,0.128224,-0.153528,0.050022,1
0.221689,1.065634,11.791579,0.012704,-0.004443,0.200758,1
0.839454,0.499661,8.849747,-0.237316,0.133009,-0.071571,1
-0.634081,4.034111,11.788735,-0.162346,0.164905,-0.291567,1
0.753234,2.07244,7.669152,0.100433,0.097507,0.01334,1
0.88002,3.358416,7.521709,0.308851,-0.076343,0.011647,1
-0.534838,3.273543,6.539751,0.171882,-0.203249,0.008458,1
-0.309107,1.204395,7.855814,0.254699,0.061796,-0.389019,1
1.089884,2.804718,10.657987,-0.604005,0.126284,0.669467,1
-0.342488,2.18336,6.881041,0.041877,0.065556,-0.215906,1
1.597029,3.694617,12.147389,0.100527,0.243174,0.130741,1
-0.173639,2.133064,12.121344,-0.026317,-0.298009,0.024682,1
-0.380209,2.104773,6.903494,-0.941206,-0.019195,-0.124515,1
0.046703,3.142715,7.168743,0.23179,0.089545,0.151655,1
0.488734,0.961301,12.47416,-0.083656,-0.140065,0.045916,1
-0.056133,0.652493,9.725126,-0.088599,0.203091,-0.215412,1
0.448916,1.655108,9.084459,-0.964838,0.207205,0.637592,1
0.191452,0.863105,10.104587,0.185559,0.351222,-0.088524,1
-0.249531,3.754343,11.003019,-0.024737,-0.054889,0.193633,1
-0.102387,1.270708,13.083992,0.028541,0.233192,0.157646,1
1.194366,3.046615,12.644955,0.540598,-0.520088,0.359899,1
-0.401016,0.927771,8.565488,0.02245,-0.013444,0.007277,1
0.818348,2.569557,11.185639,-0.038749,-0.115819,-0.190765,1
0.426164,3.829487,8.844657,0.020765,0.086554,-0.375418,1
0.197439,3.475922,12.114009,-0.440127,-0.623602,0.384635,1
0.293839,2.733915,5.987699,-0.077642,0.003871,-0.110804,1
0.839754,1.397494,13.624518,0.385195,-0.113051,0.067599,1
0.34144,1.914968,7.077732,-0.063592,-0.101641,-0.128759,1
-0.463586,2.167792,6.931636,-0.000256,-0.004807,0.018198,1
-1.207988,2.16884,8.572673,-0.154982,0.037083,0.210865,1
-0.655038,1.840722,8.209379,0.270898,0.150083,-0.029379,1
-1.131198,2.940485,11.830947,-0.033155,0.055755,0.274473,1
-0.771346,1.444047,9.50209,-0.105428,-0.252903,-0.042767,1
1.88024,0.569865,10.148596,0.169528,-0.191045,0.174837,1
1.042732,1.767973,12.060869,-0.33944,-0.054985,-0.138512,1
0.184417,-0.381856,11.407478,0.215472,-0.239009,0.076844,1
0.165406,4.024232,11.61345,0.20942,0.050152,0.133661,1
-0.320783,1.210832,10.1706,0.019584,-0.090951,0.268494,1
0.395328,2.468367,8.762478,-0.42526,0.295305,-0.232591,1
0.762365,1.902244,12.014166,-0.487965,-0.028232,0.131843,1
-0.733026,1.74103,9.61271,0.135222,0.258815,0.436476,1
-0.794398,1.677711,12.091406,-0.579239,0.237745,-0.583098,1
0.824635,2.162254,8.722811,-0.246892,0.43094,0.383537,1
-1.397344,2.261048,10.698552,0.356897,0.38048,-0.139257,1
0.754431,0.837059,8.42014,0.049656,-0.050173,-0.175827,1
-0.86535,0.602048,12.008179,0.200896,0.207345,-0.053322,1
0.021705,3.168761,7.460336,0.23046,-0.242086,-0.087133,1
0.392933,1.873654,9.344468,-0.078717,-0.10358,-0.239983,1
0.117805,3.154839,11.404035,0.041583,0.4585,-0.073176,1
-1.492247,3.363506,10.902877,-1.012613,-0.322073,-0.539378,1
1.321751,2.022444,10.792407,-0.743232,-0.372452,-0.019227,1
-0.313598,1.67367,6.922954,-0.453131,0.194493,0.119556,1
-0.037572,1.164878,8.972641,-0.490888,0.301464,-0.305558,1
0.843197,1.942511,7.406448,-0.116036,-0.097775,-0.074061,1
-0.879571,0.995131,10.134974,0.123985,0.090953,0.321718,1
0.868793,1.771117,7.278464,0.246692,-0.283798,0.518721,1
0.890498,-0.259261,14.72443,0.319596,0.020451,0.081409,1
0.738414,0.750988,8.6559,0.051277,-0.123234,0.322807,1
0.048349,1.959276,6.604416,-0.459474,-0.310406,-0.550969,1
-0.619861,3.718567,12.177477,0.412938,-0.030317,0.24487,1
0.162712,1.346001,7.83815,0.29568,0.269536,-0.139971,1
0.323178,1.744622,10.515333,0.168201,0.060437,-0.245378,1
-0.594414,1.735042,8.374036,0.303619,0.164578,0.023225,1
0.099244,0.974174,7.3093,0.197889,-0.122466,0.351246,1
-0.025597,0.041464,9.779164,-0.174614,-0.033146,0.052443,1
0.366438,3.628305,11.806548,-0.01299,-0.200677,0.080007,1
0.205074,4.791835,10.582993,-0.339072,0.284303,0.220908,1
-0.668061,1.742377,8.308023,0.033427,0.109325,-0.29546,1
-0.036225,2.951712,11.019934,-0.094026,-0.132751,-0.083442,1
-0.07709,3.760779,10.923085,-1.043148,0.043567,-0.285468,1
-0.425415,3.757486,10.427616,-0.104402,-0.323064,0.039195,1
-1.625769,3.930526,10.987601,0.064619,-0.156983,0.138954,1
-0.006736,1.322949,14.220728,-0.388797,-0.692118,-0.209743,1
-0.22618,1.372945,6.821165,-0.369991,-0.034345,-0.318276,1
1.415157,1.889072,12.127481,0.411818,0.565112,0.019929,1
-0.454455,3.796705,11.33443,-0.003536,0.255132,0.104756,1
-0.652044,1.945953,7.432045,0.156225,0.146597,-0.351573,1
-1.019979,-0.34623,10.141411,-0.073999,-0.447423,-0.189375,1
0.06736,1.948797,7.667056,0.02319,0.082599,-0.018951,1
1.06279,1.223855,10.009086,0.072852,-0.206027,-0.019341,1
0.05748,2.628384,8.815019,0.088113,-0.006562,0.176089,1
1.260828,2.184557,14.423257,0.21837,-0.058979,-0.016683,1
0.59172,2.682871,8.652757,0.179898,0.236233,-0.067879,1
-0.233215,5.480553,7.36229,-0.157173,-0.52371,0.047516,1
-0.361349,3.527564,9.642049,0.088465,-0.234243,-0.018251,1
0.77434,1.656006,7.874824,0.026454,-0.193294,-0.011125,1
0.728834,3.022215,12.503948,0.789895,-0.414062,0.292243,1
0.580942,0.283211,9.348659,0.335105,-0.005594,1.461957,1
0.380209,2.116299,9.316327,0.046892,0.06081,0.041474,1
-0.528401,1.554068,6.992559,0.531583,0.000601,0.338125,1
-0.414189,-0.926274,11.701616,-0.045079,-0.020597,-0.064599,1
0.261207,1.644181,7.039112,-0.293356,-0.108961,0.114314,1
0.362546,3.850593,10.199939,0.030149,0.055407,0.105185,1
0.24519,1.484164,6.946754,0.000563,0.166196,-0.021788,1
-0.304617,2.85187,7.325317,0.263792,0.069139,0.083465,1
-0.261057,1.837279,8.864566,-0.181397,0.16786,-0.035638,1
0.499212,0.650397,10.216555,0.115813,-0.170971,0.369991,1
-0.08188,2.702031,6.307883,-0.011471,0.051945,0.229074,1
0.340242,2.507286,13.814622,0.518851,0.347826,0.377152,1
0.713416,1.057701,6.845565,-0.016062,-0.163562,0.001087,1
0.50011,3.61139,11.872112,0.229332,-0.098959,-0.080023,1
-0.342787,1.719474,7.789053,0.495498,0.286458,0.288329,1
1.523831,2.21704,8.789273,-0.031287,0.08628,0.240097,1
1.979933,1.888473,10.263257,-0.088617,-0.409444,-0.619902,1
0.255369,3.241509,7.354057,0.085546,0.030841,-0.120489,1
-0.180225,2.538721,7.629784,-0.156755,0.467209,-0.595212,1
-0.42796,2.470163,7.126081,0.084066,0.033858,0.343735,1
0.494871,4.420009,10.419532,0.340587,-0.289124,0.094623,1
0.683628,4.093987,10.275233,0.043075,-0.075123,-0.237459,1
0.49053,1.097817,9.271121,-0.117234,-0.156713,0.264032,1
0.521366,1.402883,10.764415,0.080839,-0.07773,-0.229469,1
1.059796,2.5248,10.333012,-0.359917,0.501633,-0.359572,1
0.49053,2.492617,6.473289,0.102362,-0.132066,-0.21773,1
1.409918,0.236658,7.480544,-0.024267,-0.058218,0.263643,1
0.221539,1.665437,11.700868,-0.057634,-0.059356,0.080496,1
-0.231119,3.588637,10.30996,-0.487312,-0.070605,-0.414762,1
0.814456,1.495241,7.919731,0.346037,-0.030121,-0.211371,1
0.88466,1.710493,11.208093,-0.191013,0.219884,0.178317,1
0.783022,-0.161364,9.430988,0.263813,-0.15589,-0.18788,1
0.416584,2.28425,9.068143,-0.654624,0.052158,-0.29109,1
-0.330064,-0.927022,11.016192,-0.110033,-0.266553,0.276792,1
-0.632135,2.40445,6.994655,-0.155106,0.368747,-0.692533,1
0.016017,3.116968,7.966134,0.142192,-0.522326,-0.401175,1
-0.081281,4.098627,10.984009,0.055986,0.474856,0.066094,1
-0.422871,3.10155,6.856642,0.155991,0.084084,0.518476,1
0.221839,2.77478,12.372821,-0.452759,0.277933,-0.093341,1
-0.504601,3.12086,8.421936,-0.137221,-0.119976,0.152726,1
0.051044,2.456991,13.649067,-0.092624,0.233783,0.141397,1
-0.02874,2.306104,9.293125,0.239564,0.057812,-0.228568,1
1.809737,2.004033,11.670032,-0.115042,0.158533,0.081369,1
0.182021,1.731898,11.907139,0.396539,-0.298017,0.402086,1
-0.683479,2.1639,9.479936,-0.125364,-0.368974,-0.137695,1
0.99049,1.009351,12.51263,0.207849,-0.192966,-0.223605,1
-0.720901,1.1541,9.834549,-0.019759,-0.080415,-0.500705,1
-0.539179,0.700992,10.793904,0.028784,-0.167315,0.002202,1
-0.229622,2.788252,6.805897,0.142073,-0.121096,0.453752,1
-0.304018,1.032553,11.178155,-0.246013,-0.119243,-0.005895,1
1.506168,1.890119,12.795242,0.163211,-0.299727,0.020293,1
-1.191822,1.742826,8.969198,-0.201675,-0.191314,0.261392,1
-1.481469,1.647324,14.252911,0.235199,-0.066549,0.106629,1
0.041164,2.0919,7.04031,0.129572,-0.213473,0.17892,1
0.590073,3.284021,7.870334,0.016347,-0.017766,-0.051729,1
0.669109,3.793112,11.203153,-0.099626,0.298164,0.243093,1
-0.01916,2.588866,7.876022,-0.162299,0.080558,-0.162676,1
0.66821,2.209555,13.973741,-0.059403,0.045041,-0.119939,1
-0.218096,1.701063,7.673942,-0.72699,-0.305742,0.054254,1
0.323028,1.716481,9.196875,0.312705,-0.035919,0.077618,1
-0.443528,1.868265,7.058572,-0.743163,-0.170325,0.104268,1
0.847388,3.412005,11.912378,0.954387,-0.196732,0.687411,1
-0.3606,0.936453,7.921826,0.161967,-0.155641,-0.342136,1
-0.210013,0.830323,12.381652,-0.388063,0.045717,-0.584904,1
-1.546135,1.658701,9.931697,0.905933,0.138889,0.251911,1
-1.203497,1.055455,8.643326,-0.017813,-0.537348,0.510964,1
0.493374,3.795058,10.631342,-0.483733,0.440462,-0.055864,1
0.583337,4.556375,8.171058,0.111181,0.047458,0.051308,1
1.106349,2.230212,8.383766,0.157703,-0.123359,0.12999,1
1.035247,1.758842,10.181827,0.030427,-0.215997,0.101691,1
-0.411195,3.161575,8.082742,0.077167,-0.611746,0.121846,1
-0.197739,2.081422,11.110047,-0.192017,-0.257752,0.06736,1
-0.488135,2.86624,6.970704,0.053959,0.204256,-0.441736,1
1.97634,1.907633,11.545042,0.039513,0.056459,-0.033708,1
-0.261506,1.425186,9.005872,-0.053474,-0.01893,0.056803,1
-0.527653,2.484683,7.692653,0.045314,-0.508146,-0.145945,1
0.789159,3.421136,11.066038,-0.095758,-0.303447,-0.145454,1
-0.409249,1.60601,8.930579,0.10287,0.216333,-0.044602,1
0.609383,1.649869,5.757926,0.201459,0.302617,0.028917,1
-1.422342,3.347489,11.208392,-0.041204,0.041173,0.286973,1
-0.250878,1.957779,7.187154,-0.166421,0.003556,0.107708,1
-0.066611,3.402275,7.735314,0.025946,-0.032605,0.464505,1
0.318538,1.589245,6.034102,-0.192627,-0.146798,0.163283,1
-0.60579,2.607428,7.373217,0.035237,0.015254,0.40921,1
1.174907,1.911375,7.199429,-0.014187,0.102397,0.218509,1
0.135618,3.310216,12.043356,0.104541,-0.10107,0.08693,1
1.05815,0.329615,11.136242,-0.184706,-0.531163,0.041519,1
0.715512,1.270408,9.132808,0.112588,-0.053898,0.028904,1
0.164059,2.117048,7.174131,-0.454462,-0.058539,-0.3123,1
0.145797,3.369643,8.57881,-0.131257,0.165828,-0.107199,1
0.121847,4.238286,11.278746,-0.409483,-0.399007,0.369851,1
-0.575703,0.650996,9.780811,0.249011,-0.671568,-0.558338,0
-0.128882,4.380042,10.469079,0.014565,-0.275862,-0.003758,1
-1.002316,2.827919,11.562705,0.233266,-0.114247,0.006575,1
-0.48095,4.18844,9.623787,0.214861,0.472117,0.259613,1
-0.68273,1.850452,7.043303,-0.147112,0.41378,0.305617,1
-0.972827,3.052303,9.014554,-0.065059,0.147297,-0.14174,1
0.755778,3.235971,11.118279,0.676676,-0.328717,0.47185,1
-0.079634,3.098257,7.355404,0.263482,-0.018244,0.042037,1
-0.54322,1.26008,9.824071,0.047178,-0.415896,0.059997,0
-0.372875,2.204765,6.567593,-0.087122,0.003369,0.17846,1
-0.273631,2.74574,10.839559,-0.121486,0.202292,-0.033703,1
0.078287,3.362009,13.756244,-0.160441,-0.157868,0.043794,1
-0.071102,1.932781,6.361471,0.156019,-0.075828,-0.160747,1
1.113085,2.009721,11.802357,-0.113667,-0.517076,-0.344735,1
-1.123264,2.141597,11.304492,0.152919,0.102829,-0.042424,1
-1.094225,4.144731,8.36266,-0.050129,-0.073769,0.15409,1
1.65406,1.254841,9.331894,0.294647,-0.154392,-0.078273,1
0.537532,0.666714,6.714138,-0.180684,-0.138106,-0.335527,1
0.713716,0.77404,7.901169,0.200849,0.084825,0.027051,1
-0.09116,2.175875,6.579568,0.094765,0.134428,0.054968,1
-0.118853,2.362537,8.433163,0.413905,0.285473,0.073998,1
0.071551,1.509311,6.83838,0.116657,-0.059656,-0.091093,1
0.964444,0.738265,10.193353,0.083602,-0.152642,-0.127945,1
0.578846,1.706152,11.358979,-0.355582,-0.094302,-0.308571,1
1.542991,1.790576,9.49266,-1.208005,-0.096095,-0.728388,1
0.02904,2.756817,8.706046,-0.711071,0.18664,-0.02377,1
0.360001,2.43319,12.308305,0.697889,-0.113074,0.484279,1
1.364413,1.201402,9.087153,0.119897,-0.307856,-0.17761,1
-0.038171,1.973496,6.274352,0.028776,0.249513,0.151356,1
-0.44218,1.752705,9.712253,-0.011631,0.0629,0.013311,1
-0.910257,2.521207,9.169033,0.725649,0.454592,0.460348,1
0.686323,0.371378,8.735834,0.313142,-0.106211,-0.034915,1
-0.000599,3.557652,8.590636,-0.229996,0.178911,0.091375,1
-0.306113,-0.008383,16.206648,0.135962,0.665286,0.123824,1
0.785117,0.58199,7.804021,-0.079479,-0.007302,-0.205641,1
-1.162183,0.993185,15.315701,-0.670145,0.137676,0.586044,1
2.429598,-2.002685,11.374696,0.208374,-0.059063,-0.059222,1
0.093256,1.225202,9.39177,-0.082376,0.071444,0.045316,1
0.725092,2.821333,11.798764,-0.576768,-0.415952,0.224167,1
0.084275,1.118624,7.030131,0.077634,-0.122326,0.204774,1
0.294288,1.801504,7.457642,0.058591,0.026538,0.287287,1
0.246537,2.78915,7.413484,-0.256747,0.15995,0.086883,1
0.22109,1.082249,7.287895,-0.173641,0.162298,-0.061796,1
-0.592767,4.147276,9.619895,0.287551,-0.215779,0.143945,1
-1.094075,3.434907,9.712702,-0.39236,0.14347,0.266783,1
1.295406,2.12528,9.884246,-0.201596,0.352918,0.345228,1
0.550106,4.200565,11.590398,0.163523,-0.145773,-0.294345,1
1.27445,-0.271086,14.588663,-0.088698,0.244369,0.437875,1
-0.333207,1.175655,10.915002,0.1145,0.186907,-0.289225,1
1.43297,0.938548,11.318563,-0.050176,0.07103,-1.002432,1
-0.556393,1.840872,8.143216,-0.163264,-0.061894,0.26049,1
-0.106728,2.487677,10.798993,0.644684,0.265827,0.333322,1
-1.453178,1.393901,9.068292,0.517743,0.258211,-0.223701,1
-0.22139,2.045197,6.768924,0.09033,0.189477,-0.179381,1
0.332608,3.26022,7.304361,0.428405,0.0123,0.009506,1
0.332908,2.655478,7.055877,0.115941,-0.228088,-0.141726,1
-0.617915,3.373984,9.976903,-0.140777,-0.065495,-0.37622,1
-0.37976,2.043251,6.558162,-0.008939,-0.022727,0.205129,1
1.310824,2.627636,12.186458,0.539568,-0.426209,-0.187122,1
0.790955,3.220403,12.172537,-0.703929,0.151498,0.124283,1
0.189057,3.221601,7.231911,-0.010331,0.248771,-0.301806,1
-0.587229,1.576971,9.8341,-0.219398,0.028699,0.373664,0
0.389939,0.647104,13.053904,0.056513,0.250744,-0.305394,1
-0.41853,2.873425,10.885963,0.262524,-0.301297,-0.0767,1
-0.168999,2.60159,8.995394,0.064931,-0.82872,-0.142147,1
1.299298,-1.944606,11.081905,0.24741,-0.08573,-0.2147,1
0.462089,3.08703,11.880494,0.072454,0.095556,0.134045,1
0.782273,1.912573,12.165651,0.203752,0.192641,-0.078776,1
-0.487985,4.21748,10.572365,-0.094656,-0.584158,-0.134411,1
-0.897234,2.248923,7.723938,0.063189,0.196893,-0.122262,1
0.140408,3.100353,7.491322,-0.049452,-0.378193,-0.270472,1
-0.427361,1.691033,13.451927,0.134902,0.045668,-0.108821,1
1.021476,1.629062,12.605137,-0.116118,0.158718,0.036496,1
-0.134271,2.596351,7.480844,0.299044,0.526897,0.575901,1
-0.890498,1.697919,8.115224,0.240082,-0.022773,-0.216717,1
2.41403,-0.132025,13.745316,0.578636,-0.544687,-0.724422,1
0.191901,1.746867,7.697293,-0.143577,-0.809973,-0.013378,1
-0.479902,3.992198,9.663155,-0.461754,-0.576018,0.030653,1
-0.320633,1.305735,9.598789,0.163251,-0.020098,0.11272,0
-0.104632,2.668052,9.631272,-0.049213,-0.014715,-0.101416,1
-0.37976,2.634072,7.379504,0.059568,0.210828,0.27453,1
-0.016915,3.023413,6.917565,-0.047661,-0.084361,-0.055759,1
1.14467,1.909579,9.057365,0.087912,0.116593,-0.229078,1
0.129481,2.990631,11.538905,-0.179587,0.368437,0.005588,1
0.042811,3.888763,9.10811,0.028806,-0.142945,-0.074961,1
-0.822989,1.97649,9.711655,0.408444,-0.394477,-0.084946,1
-0.51463,1.780996,7.667056,0.044148,-0.015176,0.112516,1
0.224234,3.100952,12.150084,-0.219544,0.364203,0.224284,1
-0.465382,0.969085,9.853559,-0.070893,-0.0212,0.044958,0
0.144599,2.568958,7.716004,-0.005259,-0.055431,-0.589873,1
1.627565,1.304088,8.537796,-0.031348,-0.111,-0.148781,1
1.266367,1.465602,7.431446,0.375744,0.170769,-0.110413,1
0.195793,2.648592,8.400381,0.215268,-0.187837,0.076231,1
-0.887055,2.04879,9.447454,0.003173,-0.005451,-0.018466,1
1.439556,-0.109123,9.122779,-0.190186,-0.201947,0.16571,1
0.867895,1.821861,10.506352,0.03322,0.260141,0.047043,1
-0.020807,1.563349,6.450087,-0.315692,0.028175,-0.014975,1
-0.930615,1.026416,11.975247,-0.027817,0.201896,0.217659,1
1.005309,1.683848,10.25218,-0.1226,0.052692,-0.043543,1
-0.407153,3.426525,7.236851,0.282447,-0.560616,0.211692,1
-0.311203,3.730393,9.920171,0.094513,-0.002961,-0.054328,1
-0.011227,0.639919,9.441915,0.018439,0.251301,0.156275,1
0.554597,2.555935,11.153606,0.020928,-0.42311,-0.096049,1
-0.37512,3.704047,9.125473,-0.10875,-0.37346,-0.35706,1
-0.395328,1.723067,13.091925,-0.03769,-0.021648,-0.12843,1
-0.417632,2.902464,11.766132,-0.536838,-0.035272,0.155966,1
-0.187859,2.265838,6.789282,0.18315,-0.138569,-0.235865,1
1.415007,2.820884,10.98805,0.105876,-0.211375,0.075364,1
0.999621,1.965563,10.227033,0.588988,0.014364,-0.235185,1
1.656006,2.402055,11.537408,-0.088934,0.38453,-0.069162,1
0.17813,3.9434,9.265882,0.171703,-0.049746,-0.067268,1
-1.040935,2.850971,8.803044,0.048226,-0.020914,0.523109,1
0.077838,3.229983,5.395081,0.382081,0.56536,1.223311,1
0.074994,0.67809,9.492211,0.014971,0.1182,0.109019,1
0.296982,3.68354,8.173603,-0.004347,-0.239265,-0.08908,1
-0.272284,3.841162,7.359446,0.10631,0.025114,0.013882,1
0.039967,3.727698,10.815609,-0.251833,0.145331,0.295402,1
-0.611029,1.691782,9.759405,-0.463946,0.346075,0.291408,1
-0.060923,3.028203,8.445737,-0.938414,0.421488,-0.478113,1
0.75039,2.478995,6.73704,-0.646088,-0.179952,-0.494612,1
0.520318,0.970582,5.812114,-0.070316,0.002625,-0.200953,1
0.71162,0.350721,12.479698,0.087549,0.172412,0.202028,1
-0.072,3.52951,7.633676,0.010141,-0.372954,-0.164197,1
-0.71147,2.330354,9.302406,-0.80658,-0.366178,-0.072919,1
-0.582439,2.004332,9.608669,-0.758571,0.080589,-0.422302,0
0.277074,2.645748,8.361013,-0.601947,0.220009,-0.117797,1
0.072749,1.33208,9.489367,-0.187534,-0.097023,-0.346714,1
-0.58199,1.327889,9.708212,-0.165641,0.009099,0.226214,1
0.590073,3.498076,8.706644,0.103976,-0.140014,-0.235082,1
1.721121,0.713566,9.484577,0.326208,0.040516,-0.412132,1
-0.146695,3.572621,6.529123,0.40713,-0.001019,0.15637,1
-0.399669,3.311414,8.125553,-0.06467,0.070941,0.104563,1
0.546064,1.274899,9.631272,-0.247435,0.26595,-0.464424,1
-1.087189,0.012274,9.713151,0.123745,-0.234175,0.036408,1
-0.217797,3.264262,12.46458,0.186133,0.023044,-0.036328,1
0.581241,0.218695,11.239078,-0.63765,0.092189,-0.037323,1
-0.792602,0.675545,9.53098,1.142485,0.551685,-0.218301,1
-0.529599,3.017725,11.637999,0.118202,0.001079,-0.069537,1
0.305664,1.947001,11.291469,0.052915,-0.389626,0.082806,1
0.037871,1.29376,7.046447,0.0829,0.322921,-0.135318,1
-0.231568,2.2603,8.973539,0.212442,-0.163665,-0.020455,1
0.089813,2.618804,7.259903,0.210624,0.003229,-0.281795,1
-0.73093,1.632505,9.713301,-0.764688,-1.084979,0.84633,1
0.909808,1.451382,10.620714,-0.236762,0.075318,0.19595,1
-0.369581,2.609374,6.292764,-0.020311,-0.113307,-0.077893,1
0.069156,2.316283,13.001064,0.193531,0.097084,0.02582,1
-0.777633,2.76969,12.8876,0.02706,-0.182334,0.026729,1
-0.097597,2.516118,6.358328,0.175208,-0.289068,-0.010055,1
0.780477,1.985022,9.14628,0.122513,-0.27384,0.002929,1
0.374821,2.430795,6.989715,-0.084136,0.14313,-0.028549,1
1.170715,1.694177,11.588302,0.038324,-0.102248,-0.009759,1
0.292192,3.03449,9.393267,-0.368054,-0.334222,0.313449,1
0.157323,2.008673,7.004983,-0.226105,0.016022,0.396269,1
1.222657,1.441053,7.592661,0.051869,-0.142422,0.056945,1
0.802781,1.738784,12.037368,0.035262,0.266466,0.00175,1
-0.030237,3.418441,11.417507,0.228254,-0.159453,0.066782,1
-0.814756,2.121688,11.207344,-0.214639,0.088262,0.219438,1
0.048649,1.788481,6.286178,0.322508,-0.304007,0.015741,1
0.369881,-0.06272,10.721305,0.095652,0.00071,0.124773,1
0.732128,-0.506846,11.193423,0.200759,-0.184536,-0.045688,1
0.32228,2.424957,6.270011,-0.2446,0.135736,-0.088036,1
-0.690065,0.498463,11.984977,0.194698,-0.532665,0.047412,1
-0.212558,2.122736,10.464589,0.457872,-0.226401,0.177033,1
-0.12035,3.351081,11.982881,0.044071,-0.247093,-0.278305,1
0.263452,3.158432,5.395231,0.049868,0.216481,-0.381617,1
0.5528,1.733545,7.263346,0.183533,0.060153,0.169259,1
-0.028291,2.033521,7.161408,0.172946,0.211019,-0.283098,1
-0.299677,3.678301,9.117091,0.361687,0.057134,0.107243,1
-0.830772,1.801204,8.397986,0.204895,0.64502,0.102917,1
0.32677,2.753823,6.671926,0.252319,0.051944,-0.169766,1
0.146396,2.905757,6.528973,-0.035063,-0.150584,-0.209713,1
-0.079634,2.574047,6.22241,-0.189214,0.049392,-0.612367,1
-0.274828,1.818868,7.746391,0.069412,0.156759,0.569803,1
-0.249531,3.810626,12.552896,-0.466511,0.343235,-0.420359,1
-0.095202,2.825524,9.411229,0.260188,0.275299,-0.261196,1
-0.576302,2.668201,8.838969,-0.749103,-0.029626,-0.115853,1
0.25986,3.318,8.525072,0.182953,0.111263,-0.134254,1
0.300575,4.30894,11.541599,-0.345007,-0.160861,-0.162645,1
0.151335,1.79357,12.004586,-0.248785,-0.065062,0.005842,1
-0.169897,2.634072,9.566157,-0.175091,-0.143747,-0.095947,1
0.901425,2.098037,7.307654,-0.762796,-0.02943,-0.510134,1
-0.106578,3.470683,8.406968,0.077765,-0.035878,0.172989,1
0.195493,1.804498,7.69894,0.008668,-0.240895,-0.073525,1
0.504601,0.414039,8.45876,-0.181273,0.3052,0.129946,1
-0.529,2.67374,12.669055,-0.169887,0.032484,-0.503646,1
0.695005,1.011447,11.236983,-0.072707,0.414689,0.09132,1
0.406704,2.464176,7.65104,0.16338,0.018004,-0.293207,1
-0.450563,3.360811,9.101224,-0.161371,-0.094648,0.165855,1
-0.440085,4.120182,9.152417,0.018671,0.338783,0.319091,1
-0.553549,3.206332,9.41557,-0.004148,-0.114636,0.063263,1
-0.958906,4.200715,10.995984,0.257856,-0.150283,0.050452,1
0.447719,1.171614,13.751903,0.094574,-0.472694,-0.239708,1
-0.859064,2.88525,12.49317,-0.243486,0.339923,0.091064,1
0.406255,0.04326,12.291689,0.291144,-0.276937,0.126483,1
1.21652,1.122965,12.145892,-0.171399,-0.269284,0.293194,1
0.087269,2.382745,6.211034,-0.082346,-0.279678,-0.055347,1
-0.308059,3.005001,8.055499,0.102312,0.187194,0.018205,1
1.270258,0.925825,7.195836,0.210736,0.164557,-0.235537,1
0.200583,2.670297,13.138179,0.200341,-0.139678,-0.005384,1
-0.763562,1.764231,8.547825,0.340107,0.002153,-0.065741,1
-0.711021,2.209256,9.758956,-0.039859,0.216926,-0.209669,1
-0.684077,2.536326,6.575526,0.258813,-0.229905,0.132504,1
0.048349,1.431174,11.096275,-0.348256,-0.510385,0.717478,1
